#version,serial,flight,call,time,state,state_name,acceleration,pressure,altitude,height,speed,temperature,drogue_voltage,main_voltage,battery_voltage,accel_x,accel_y,accel_z,gyro_roll,gyro_pitch,gyro_yaw,mag_x,mag_y,mag_z,tilt,pyro,igniter_a,igniter_b,igniter_c,igniter_d,connected,locked,nsat,latitude,longitude,altitude,year,month,day,hour,minute,second,pad_dist,pad_range,pad_az,pad_el,pdop,hdop,vdop,sat01,sat02,sat03,sat04,sat05,sat06,sat07,sat08,sat09,sat10,sat11,sat12,sat13,sat14,sat15,sat16,sat17,sat18,sat19,sat20,sat21,sat22,sat23,sat24,sat25,sat26,sat27,sat28,sat29,sat30,sat31,sat32
6,11065,1,Zephyr2,-0.3,3,   boost,-0.98,101561,-19.63,0.17,0,38.3,0,0,4.18,9.94,-0.59,0.22,-2.29,0.39,0.28,-0.4,0.1,0.3,2.51,4.19,0,0,4.17,0,1,1,11,27.9333534,-80.709537,10,2025,4,12,19,30,38,0,0,0,0,1.5,0.8,1.2,0,0,0,0,39,0,0,0,0,0,35,38,0,31,0,0,32,0,28,37,0,33,0,37,32,0,0,0,0,0,0,0
6,11065,1,Zephyr2,-0.29,3,   boost,0.98,101562,-19.71,0.08,0,38.3,0,0,4.18,9.82,-0.31,0.19,-2.53,0.57,0.53,-0.4,0.1,0.29,2.51,4.19,0,0,4.17,0,1,1,11,27.9333534,-80.709537,10,2025,4,12,19,30,38,0,0,0,0,1.5,0.8,1.2,0,0,0,0,39,0,0,0,0,0,35,38,0,31,0,0,32,0,28,37,0,33,0,37,32,0,0,0,0,0,0,0
6,11065,1,Zephyr2,-0.28,3,   boost,-0.49,101562,-19.71,0.08,0,38.3,0,0,4.18,9.91,-0.5,0.13,-2.23,0.08,0.59,-0.4,0.1,0.29,2.51,4.19,0,0,4.17,0,1,1,11,27.9333534,-80.709537,10,2025,4,12,19,30,38,0,0,0,0,1.5,0.8,1.2,0,0,0,0,39,0,0,0,0,0,35,38,0,31,0,0,32,0,28,37,0,33,0,37,32,0,0,0,0,0,0,0
6,11065,1,Zephyr2,-0.27,3,   boost,-0.98,101550,-18.71,1.08,0,38.3,0,0,4.18,9.71,-0.4,0.22,-2.29,0.39,0.34,-0.4,0.1,0.3,2.51,4.19,0,0,4.17,0,1,1,11,27.9333534,-80.709537,10,2025,4,12,19,30,38,0,0,0,0,1.5,0.8,1.2,0,0,0,0,39,0,0,0,0,0,35,38,0,31,0,0,32,0,28,37,0,33,0,37,32,0,0,0,0,0,0,0
6,11065,1,Zephyr2,-0.26,3,   boost,0,101550,-18.71,1.08,0,38.3,0,0,4.18,9.9,-0.37,0.14,-2.72,0.39,0.47,-0.4,0.1,0.3,2.51,4.19,0,0,4.17,0,1,1,11,27.9333534,-80.709537,10,2025,4,12,19,30,38,0,0,0,0,1.5,0.8,1.2,0,0,0,0,39,0,0,0,0,0,35,38,0,31,0,0,32,0,28,37,0,33,0,37,32,0,0,0,0,0,0,0
6,11065,1,Zephyr2,-0.25,3,   boost,0,101554,-19.05,0.75,0,38.3,0,0,4.18,9.71,-0.47,0.11,-2.66,0.2,0.59,-0.4,0.1,0.29,2.51,4.19,0,0,4.17,0,1,1,11,27.9333534,-80.709537,10,2025,4,12,19,30,38,0,0,0,0,1.5,0.8,1.2,0,0,0,0,39,0,0,0,0,0,35,38,0,31,0,0,32,0,28,37,0,33,0,37,32,0,0,0,0,0,0,0
6,11065,1,Zephyr2,-0.24,3,   boost,0.98,101554,-19.05,0.75,0,38.3,0,0,4.18,9.99,-0.45,0.16,-2.72,0.51,0.65,-0.4,0.1,0.29,2.51,4.19,0,0,4.17,0,1,1,11,27.9333534,-80.709537,10,2025,4,12,19,30,38,0,0,0,0,1.5,0.8,1.2,0,0,0,0,39,0,0,0,0,0,35,38,0,31,0,0,32,0,28,37,0,33,0,37,32,0,0,0,0,0,0,0
6,11065,1,Zephyr2,-0.23,3,   boost,-0.98,101565,-19.96,-0.17,0,38.3,0,0,4.18,9.76,-0.47,0.02,-3.33,0.51,0.89,-0.4,0.1,0.29,2.51,4.19,0,0,4.17,0,1,1,11,27.9333534,-80.709537,10,2025,4,12,19,30,38,0,0,0,0,1.5,0.8,1.2,0,0,0,0,39,0,0,0,0,0,35,38,0,31,0,0,32,0,28,37,0,33,0,37,32,0,0,0,0,0,0,0
6,11065,1,Zephyr2,-0.22,3,   boost,0,101565,-19.96,-0.17,0,38.3,0,0,4.18,9.96,-0.5,0.22,-3.02,0.45,0.4,-0.4,0.1,0.29,2.51,4.19,0,0,4.17,0,1,1,11,27.9333534,-80.709537,10,2025,4,12,19,30,38,0,0,0,0,1.5,0.8,1.2,0,0,0,0,39,0,0,0,0,0,35,38,0,31,0,0,32,0,28,37,0,33,0,37,32,0,0,0,0,0,0,0
6,11065,1,Zephyr2,-0.21,3,   boost,-0.49,101563,-19.79,0,0,38.3,0,0,4.18,9.77,-0.39,0.09,-3.33,0.63,0.47,-0.4,0.1,0.29,2.51,4.19,0,0,4.17,0,1,1,11,27.9333534,-80.709537,10,2025,4,12,19,30,38,0,0,0,0,1.5,0.8,1.2,0,0,0,0,39,0,0,0,0,0,35,38,0,31,0,0,32,0,28,37,0,33,0,37,32,0,0,0,0,0,0,0
6,11065,1,Zephyr2,-0.2,3,   boost,0.49,101563,-19.79,0,0,38.3,0,0,4.18,9.94,-0.4,0.32,-3.33,0.69,0.77,-0.4,0.1,0.3,2.51,4.19,0,0,4.17,0,1,1,11,27.9333534,-80.709537,10,2025,4,12,19,30,38,0,0,0,0,1.5,0.8,1.2,0,0,0,0,39,0,0,0,0,0,35,38,0,31,0,0,32,0,28,37,0,33,0,37,32,0,0,0,0,0,0,0
6,11065,1,Zephyr2,-0.19,3,   boost,0,101557,-19.29,0.5,0,38.3,0,0,4.18,9.71,-0.38,0.21,-3.39,0.33,0.71,-0.4,0.1,0.3,2.51,4.19,0,0,4.17,0,1,1,11,27.9333534,-80.709537,10,2025,4,12,19,30,38,0,0,0,0,1.5,0.8,1.2,0,0,0,0,39,0,0,0,0,0,35,38,0,31,0,0,32,0,28,37,0,33,0,37,32,0,0,0,0,0,0,0
6,11065,1,Zephyr2,-0.18,3,   boost,-1.96,101557,-19.29,0.5,0,38.3,0,0,4.18,9.89,-0.44,0.19,-4,0.33,0.47,-0.4,0.1,0.3,2.51,4.19,0,0,4.17,0,1,1,11,27.9333534,-80.709537,10,2025,4,12,19,30,38,0,0,0,0,1.5,0.8,1.2,0,0,0,0,39,0,0,0,0,0,35,38,0,31,0,0,32,0,28,37,0,33,0,37,32,0,0,0,0,0,0,0
6,11065,1,Zephyr2,-0.17,3,   boost,0.49,101557,-19.29,0.5,0,38.3,0,0,4.18,9.78,-0.38,0.24,-3.82,0.75,0.65,-0.4,0.1,0.3,2.51,4.19,0,0,4.17,0,1,1,11,27.9333534,-80.709537,10,2025,4,12,19,30,38,0,0,0,0,1.5,0.8,1.2,0,0,0,0,39,0,0,0,0,0,35,38,0,31,0,0,32,0,28,37,0,33,0,37,32,0,0,0,0,0,0,0
6,11065,1,Zephyr2,-0.16,3,   boost,-1.47,101557,-19.29,0.5,0,38.3,0,0,4.18,9.9,-0.37,0.08,-4.24,0.39,0.65,-0.4,0.1,0.3,2.51,4.19,0,0,4.17,0,1,1,11,27.9333534,-80.709537,10,2025,4,12,19,30,38,0,0,0,0,1.5,0.8,1.2,0,0,0,0,39,0,0,0,0,0,35,38,0,31,0,0,32,0,28,37,0,33,0,37,32,0,0,0,0,0,0,0
6,11065,1,Zephyr2,-0.15,3,   boost,-0.98,101557,-19.29,0.5,0,38.3,0,0,4.18,9.84,-0.42,0.22,-4.55,0.33,0.71,-0.4,0.1,0.3,2.51,4.19,0,0,4.17,0,1,1,11,27.9333534,-80.709537,10,2025,4,12,19,30,38,0,0,0,0,1.5,0.8,1.2,0,0,0,0,39,0,0,0,0,0,35,38,0,31,0,0,32,0,28,37,0,33,0,37,32,0,0,0,0,0,0,0
6,11065,1,Zephyr2,-0.14,3,   boost,-0.49,101557,-19.29,0.5,0,38.3,0,0,4.18,9.87,-0.34,-0.01,-4.79,0.45,0.95,-0.4,0.1,0.3,2.51,4.19,0,0,4.17,0,1,1,11,27.9333534,-80.709537,10,2025,4,12,19,30,38,0,0,0,0,1.5,0.8,1.2,0,0,0,0,39,0,0,0,0,0,35,38,0,31,0,0,32,0,28,37,0,33,0,37,32,0,0,0,0,0,0,0
6,11065,1,Zephyr2,-0.13,3,   boost,0,101556,-19.21,0.58,0,38.3,0,0,4.18,9.76,-0.36,0.17,-5.04,0.39,0.83,-0.4,0.1,0.3,2.51,4.19,0,0,4.17,0,1,1,11,27.9333534,-80.709537,10,2025,4,12,19,30,38,0,0,0,0,1.5,0.8,1.2,0,0,0,0,39,0,0,0,0,0,35,38,0,31,0,0,32,0,28,37,0,33,0,37,32,0,0,0,0,0,0,0
6,11065,1,Zephyr2,-0.12,3,   boost,-0.49,101556,-19.21,0.58,0,38.3,0,0,4.18,9.92,-0.49,-0.06,-5.16,0.14,0.65,-0.4,0.1,0.3,2.51,4.19,0,0,4.17,0,1,1,11,27.9333534,-80.709537,10,2025,4,12,19,30,38,0,0,0,0,1.5,0.8,1.2,0,0,0,0,39,0,0,0,0,0,35,38,0,31,0,0,32,0,28,37,0,33,0,37,32,0,0,0,0,0,0,0
6,11065,1,Zephyr2,-0.11,3,   boost,0.98,101560,-19.54,0.25,0,38.3,0,0,4.18,9.84,-0.5,0.11,-5.34,0.33,1.02,-0.4,0.1,0.3,2.51,4.19,0,0,4.17,0,1,1,11,27.9333534,-80.709537,10,2025,4,12,19,30,38,0,0,0,0,1.5,0.8,1.2,0,0,0,0,39,0,0,0,0,0,35,38,0,31,0,0,32,0,28,37,0,33,0,37,32,0,0,0,0,0,0,0
6,11065,1,Zephyr2,-0.1,3,   boost,-0.98,101560,-19.54,0.25,0,38.3,0,0,4.18,9.9,-0.47,0.08,-5.4,0.51,0.77,-0.4,0.1,0.3,2.51,4.19,0,0,4.17,0,1,1,11,27.9333534,-80.709537,10,2025,4,12,19,30,38,0,0,0,0,1.5,0.8,1.2,0,0,0,0,39,0,0,0,0,0,35,38,0,31,0,0,32,0,28,37,0,33,0,37,32,0,0,0,0,0,0,0
6,11065,1,Zephyr2,-0.09,3,   boost,-0.49,101549,-18.63,1.16,0,38.2,0,0,4.18,9.8,-0.42,0.14,-5.46,0.39,1.02,-0.4,0.1,0.3,2.51,4.19,0,0,4.17,0,1,1,11,27.9333534,-80.709537,10,2025,4,12,19,30,38,0,0,0,0,1.5,0.8,1.2,0,0,0,0,39,0,0,0,0,0,35,38,0,31,0,0,32,0,28,37,0,33,0,37,32,0,0,0,0,0,0,0
6,11065,1,Zephyr2,-0.08,3,   boost,-0.49,101549,-18.63,1.16,0.03,38.2,0,0,4.18,9.84,-0.23,0.2,-5.4,0.33,0.71,-0.4,0.1,0.3,2.51,4.19,0,0,4.17,0,1,1,11,27.9333534,-80.709537,10,2025,4,12,19,30,38,0,0,0,0,1.5,0.8,1.2,0,0,0,0,39,0,0,0,0,0,35,38,0,31,0,0,32,0,28,37,0,33,0,37,32,0,0,0,0,0,0,0
6,11065,1,Zephyr2,-0.07,3,   boost,0.98,101556,-19.21,0.58,0.1,38.3,0,0,4.18,9.81,-0.38,0.2,-4.91,0.26,0.77,-0.4,0.1,0.3,2.51,4.19,0,0,4.17,0,1,1,11,27.9333534,-80.709537,10,2025,4,12,19,30,38,0,0,0,0,1.5,0.8,1.2,0,0,0,0,39,0,0,0,0,0,35,38,0,31,0,0,32,0,28,37,0,33,0,37,32,0,0,0,0,0,0,0
6,11065,1,Zephyr2,-0.06,3,   boost,-0.98,101556,-19.21,0.58,0.29,38.3,0,0,4.18,9.83,-0.32,0.11,-5.22,0.39,0.53,-0.4,0.1,0.3,2.51,4.19,0,0,4.17,0,1,1,11,27.9333534,-80.709537,10,2025,4,12,19,30,38,0,0,0,0,1.5,0.8,1.2,0,0,0,0,39,0,0,0,0,0,35,38,0,31,0,0,32,0,28,37,0,33,0,37,32,0,0,0,0,0,0,0
6,11065,1,Zephyr2,-0.05,3,   boost,45.11,101566,-20.04,-0.25,0.63,38.3,0,0,4.18,9.86,-0.45,0.11,-5.28,0.26,0.53,-0.4,0.1,0.3,2.51,4.19,0,0,4.17,0,1,1,11,27.9333534,-80.709537,10,2025,4,12,19,30,38,0,0,0,0,1.5,0.8,1.2,0,0,0,0,39,0,0,0,0,0,35,38,0,31,0,0,32,0,28,37,0,33,0,37,32,0,0,0,0,0,0,0
6,11065,1,Zephyr2,-0.04,3,   boost,81.89,101566,-20.04,-0.25,1.17,38.3,0,0,4.18,15.46,-1.77,-0.35,-4.73,0.26,-0.08,-0.4,0.1,0.3,2.51,4.19,0,0,4.17,0,1,1,11,27.9333534,-80.709537,10,2025,4,12,19,30,38,0,0,0,0,1.5,0.8,1.2,0,0,0,0,39,0,0,0,0,0,35,38,0,31,0,0,32,0,28,37,0,33,0,37,32,0,0,0,0,0,0,0
6,11065,1,Zephyr2,-0.03,3,   boost,86.3,101636,-25.86,-6.06,1.91,38.3,0,0,4.18,79,3.16,-1.16,-4.3,4.48,-8.51,-0.4,0.11,0.3,2.51,4.19,0,0,4.17,0,1,1,11,27.9333534,-80.709537,10,2025,4,12,19,30,38,0,0,0,0,1.5,0.8,1.2,0,0,0,0,39,0,0,0,0,0,35,38,0,31,0,0,32,0,28,37,0,33,0,37,32,0,0,0,0,0,0,0
6,11065,1,Zephyr2,-0.02,3,   boost,113.76,101636,-25.86,-6.06,2.83,38.3,0,0,4.18,96.83,-8.04,-6.26,-6.5,5.88,-13.21,-0.4,0.11,0.3,2.51,4.19,0,0,4.17,0,1,1,11,27.9333534,-80.709537,10,2025,4,12,19,30,38,0,0,0,0,1.5,0.8,1.2,0,0,0,0,39,0,0,0,0,0,35,38,0,31,0,0,32,0,28,37,0,33,0,37,32,0,0,0,0,0,0,0
6,11065,1,Zephyr2,-0.01,3,   boost,113.76,101574,-20.71,-0.91,3.89,38.3,0,0,4.18,114.19,5.73,0.12,4.18,-2.54,-14.79,-0.4,0.11,0.29,2.51,4.19,0,0,4.17,0,1,1,11,27.9333534,-80.709537,10,2025,4,12,19,30,38,0,0,0,0,1.5,0.8,1.2,0,0,0,0,39,0,0,0,0,0,35,38,0,31,0,0,32,0,28,37,0,33,0,37,32,0,0,0,0,0,0,0
6,11065,1,Zephyr2,0,3,   boost,122.58,101574,-20.71,-0.91,5.05,38.3,0,0,4.18,128.68,-2.47,-0.62,6.68,2.89,-8.75,-0.41,0.11,0.29,2.51,4.19,0,0,4.17,0,1,1,11,27.9333534,-80.709537,10,2025,4,12,19,30,38,0,0,0,0,1.5,0.8,1.2,0,0,0,0,39,0,0,0,0,0,35,38,0,31,0,0,32,0,28,37,0,33,0,37,32,0,0,0,0,0,0,0
6,11065,1,Zephyr2,0,3,   boost,122.58,101574,-20.71,-0.91,5.05,38.3,0,0,4.18,128.68,-2.47,-0.62,6.68,2.89,-8.75,-0.41,0.11,0.29,2.51,4.19,0,0,4.17,0,1,1,11,27.9333534,-80.709537,10,2025,4,12,19,30,38,0,0,0,0,1.5,0.8,1.2,0,0,0,0,39,0,0,0,0,0,35,38,0,31,0,0,32,0,28,37,0,33,0,37,32,0,0,0,0,0,0,0
6,11065,1,Zephyr2,0,3,   boost,122.58,101574,-20.71,-0.91,5.05,38.3,0,0,4.18,128.68,-2.47,-0.62,6.68,2.89,-8.75,-0.41,0.11,0.29,2.51,4.19,0,0,4.17,0,1,1,11,27.9333534,-80.709537,10,2025,4,12,19,30,38,0,0,0,0,1.5,0.8,1.2,0,0,0,0,39,0,0,0,0,0,35,38,0,31,0,0,32,0,28,37,0,33,0,37,32,0,0,0,0,0,0,0
6,11065,1,Zephyr2,0,3,   boost,122.58,101574,-20.71,-0.91,5.05,38.3,0,0,4.18,128.68,-2.47,-0.62,6.68,2.89,-8.75,-0.41,0.11,0.29,2.51,4.19,0,0,4.17,0,1,1,11,27.9333534,-80.709537,10,2025,4,12,19,30,38,0,0,0,0,1.5,0.8,1.2,0,0,0,0,39,0,0,0,0,0,35,38,0,31,0,0,32,0,28,37,0,33,0,37,32,0,0,0,0,0,0,0
6,11065,1,Zephyr2,0,3,   boost,122.58,101574,-20.71,-0.91,5.05,38.3,0,0,4.18,128.68,-2.47,-0.62,6.68,2.89,-8.75,-0.41,0.11,0.29,2.51,4.19,0,0,4.17,0,1,1,11,27.9333534,-80.709537,10,2025,4,12,19,30,38,0,0,0,0,1.5,0.8,1.2,0,0,0,0,39,0,0,0,0,0,35,38,0,31,0,0,32,0,28,37,0,33,0,37,32,0,0,0,0,0,0,0
6,11065,1,Zephyr2,0,3,   boost,122.58,101574,-20.71,-0.91,5.05,38.3,0,0,4.18,128.68,-2.47,-0.62,6.68,2.89,-8.75,-0.41,0.11,0.29,2.5,4.19,0,0,4.17,0,1,1,11,27.9333534,-80.709537,10,2025,4,12,19,30,38,0,0,0,0,1.5,0.8,1.2,0,0,0,0,39,0,0,0,0,0,35,38,0,31,0,0,32,0,28,37,0,33,0,37,32,0,0,0,0,0,0,0
6,11065,1,Zephyr2,0,3,   boost,122.58,101574,-20.71,-0.91,5.05,38.3,0,0,4.18,128.68,-2.47,-0.62,6.68,2.89,-8.75,-0.41,0.11,0.29,2.5,4.19,0,0,4.17,0,1,1,11,27.9333534,-80.709537,10,2025,4,12,19,30,38,0,0,0,0,1.5,0.8,1.2,0,0,0,0,39,0,0,0,0,0,35,38,0,31,0,0,32,0,28,37,0,33,0,37,32,0,0,0,0,0,0,0
6,11065,1,Zephyr2,0,3,   boost,122.58,101574,-20.71,-0.91,5.05,38.3,0,0,4.18,128.68,-2.47,-0.62,6.68,2.89,-8.75,-0.41,0.11,0.29,2.49,4.19,0,0,4.17,0,1,1,11,27.9333534,-80.709537,10,2025,4,12,19,30,38,0,0,0,0,1.5,0.8,1.2,0,0,0,0,39,0,0,0,0,0,35,38,0,31,0,0,32,0,28,37,0,33,0,37,32,0,0,0,0,0,0,0
6,11065,1,Zephyr2,0,3,   boost,122.58,101574,-20.71,-0.91,5.05,38.3,0,0,4.18,128.68,-2.47,-0.62,6.68,2.89,-8.75,-0.41,0.11,0.29,2.49,4.19,0,0,4.17,0,1,1,11,27.9333534,-80.709537,10,2025,4,12,19,30,38,0,0,0,0,1.5,0.8,1.2,0,0,0,0,39,0,0,0,0,0,35,38,0,31,0,0,32,0,28,37,0,33,0,37,32,0,0,0,0,0,0,0
6,11065,1,Zephyr2,0,3,   boost,122.58,101574,-20.71,-0.91,5.05,38.3,0,0,4.18,128.68,-2.47,-0.62,6.68,2.89,-8.75,-0.41,0.11,0.29,2.48,4.19,0,0,4.17,0,1,1,11,27.9333534,-80.709537,10,2025,4,12,19,30,38,0,0,0,0,1.5,0.8,1.2,0,0,0,0,39,0,0,0,0,0,35,38,0,31,0,0,32,0,28,37,0,33,0,37,32,0,0,0,0,0,0,0
6,11065,1,Zephyr2,0,3,   boost,122.58,101574,-20.71,-0.91,5.05,38.3,0,0,4.18,128.68,-2.47,-0.62,6.68,2.89,-8.75,-0.41,0.11,0.29,2.47,4.19,0,0,4.17,0,1,1,11,27.9333534,-80.709537,10,2025,4,12,19,30,38,0,0,0,0,1.5,0.8,1.2,0,0,0,0,39,0,0,0,0,0,35,38,0,31,0,0,32,0,28,37,0,33,0,37,32,0,0,0,0,0,0,0
6,11065,1,Zephyr2,0,3,   boost,122.58,101574,-20.71,-0.91,5.05,38.3,0,0,4.18,128.68,-2.47,-0.62,6.68,2.89,-8.75,-0.41,0.11,0.29,2.46,4.19,0,0,4.17,0,1,1,11,27.9333534,-80.709537,10,2025,4,12,19,30,38,0,0,0,0,1.5,0.8,1.2,0,0,0,0,39,0,0,0,0,0,35,38,0,31,0,0,32,0,28,37,0,33,0,37,32,0,0,0,0,0,0,0
6,11065,1,Zephyr2,0,3,   boost,122.58,101574,-20.71,-0.91,5.05,38.3,0,0,4.18,128.68,-2.47,-0.62,6.68,2.89,-8.75,-0.41,0.11,0.29,2.46,4.19,0,0,4.17,0,1,1,11,27.9333534,-80.709537,10,2025,4,12,19,30,38,0,0,0,0,1.5,0.8,1.2,0,0,0,0,39,0,0,0,0,0,35,38,0,31,0,0,32,0,28,37,0,33,0,37,32,0,0,0,0,0,0,0
6,11065,1,Zephyr2,0,3,   boost,122.58,101574,-20.71,-0.91,5.05,38.3,0,0,4.18,128.68,-2.47,-0.62,6.68,2.89,-8.75,-0.41,0.11,0.29,2.45,4.19,0,0,4.17,0,1,1,11,27.9333534,-80.709537,10,2025,4,12,19,30,38,0,0,0,0,1.5,0.8,1.2,0,0,0,0,39,0,0,0,0,0,35,38,0,31,0,0,32,0,28,37,0,33,0,37,32,0,0,0,0,0,0,0
6,11065,1,Zephyr2,0,3,   boost,122.58,101574,-20.71,-0.91,5.05,38.3,0,0,4.18,128.68,-2.47,-0.62,6.68,2.89,-8.75,-0.41,0.11,0.29,2.44,4.19,0,0,4.17,0,1,1,11,27.9333534,-80.709537,10,2025,4,12,19,30,38,0,0,0,0,1.5,0.8,1.2,0,0,0,0,39,0,0,0,0,0,35,38,0,31,0,0,32,0,28,37,0,33,0,37,32,0,0,0,0,0,0,0
6,11065,1,Zephyr2,0,3,   boost,122.58,101574,-20.71,-0.91,5.05,38.3,0,0,4.18,128.68,-2.47,-0.62,6.68,2.89,-8.75,-0.41,0.11,0.29,2.43,4.19,0,0,4.17,0,1,1,11,27.9333534,-80.709537,10,2025,4,12,19,30,38,0,0,0,0,1.5,0.8,1.2,0,0,0,0,39,0,0,0,0,0,35,38,0,31,0,0,32,0,28,37,0,33,0,37,32,0,0,0,0,0,0,0
6,11065,1,Zephyr2,0,3,   boost,122.58,101574,-20.71,-0.91,5.05,38.3,0,0,4.18,128.68,-2.47,-0.62,6.68,2.89,-8.75,-0.41,0.11,0.29,2.43,4.19,0,0,4.17,0,1,1,11,27.9333534,-80.709537,10,2025,4,12,19,30,38,0,0,0,0,1.5,0.8,1.2,0,0,0,0,39,0,0,0,0,0,35,38,0,31,0,0,32,0,28,37,0,33,0,37,32,0,0,0,0,0,0,0
6,11065,1,Zephyr2,0,3,   boost,122.58,101574,-20.71,-0.91,5.05,38.3,0,0,4.18,128.68,-2.47,-0.62,6.68,2.89,-8.75,-0.41,0.11,0.29,2.42,4.19,0,0,4.17,0,1,1,11,27.9333534,-80.709537,10,2025,4,12,19,30,38,0,0,0,0,1.5,0.8,1.2,0,0,0,0,39,0,0,0,0,0,35,38,0,31,0,0,32,0,28,37,0,33,0,37,32,0,0,0,0,0,0,0
6,11065,1,Zephyr2,0,3,   boost,122.58,101574,-20.71,-0.91,5.05,38.3,0,0,4.18,128.68,-2.47,-0.62,6.68,2.89,-8.75,-0.41,0.11,0.29,2.41,4.19,0,0,4.17,0,1,1,11,27.9333534,-80.709537,10,2025,4,12,19,30,38,0,0,0,0,1.5,0.8,1.2,0,0,0,0,39,0,0,0,0,0,35,38,0,31,0,0,32,0,28,37,0,33,0,37,32,0,0,0,0,0,0,0
6,11065,1,Zephyr2,0,3,   boost,122.58,101574,-20.71,-0.91,5.05,38.3,0,0,4.18,128.68,-2.47,-0.62,6.68,2.89,-8.75,-0.41,0.11,0.29,2.4,4.19,0,0,4.17,0,1,1,11,27.9333534,-80.709537,10,2025,4,12,19,30,38,0,0,0,0,1.5,0.8,1.2,0,0,0,0,39,0,0,0,0,0,35,38,0,31,0,0,32,0,28,37,0,33,0,37,32,0,0,0,0,0,0,0
6,11065,1,Zephyr2,0,3,   boost,122.58,101574,-20.71,-0.91,5.05,38.3,0,0,4.18,128.68,-2.47,-0.62,6.68,2.89,-8.75,-0.41,0.11,0.29,2.39,4.19,0,0,4.17,0,1,1,11,27.9333534,-80.709537,10,2025,4,12,19,30,38,0,0,0,0,1.5,0.8,1.2,0,0,0,0,39,0,0,0,0,0,35,38,0,31,0,0,32,0,28,37,0,33,0,37,32,0,0,0,0,0,0,0
6,11065,1,Zephyr2,0,3,   boost,122.58,101574,-20.71,-0.91,5.05,38.3,0,0,4.18,128.68,-2.47,-0.62,6.68,2.89,-8.75,-0.41,0.11,0.29,2.38,4.19,0,0,4.17,0,1,1,11,27.9333534,-80.709537,10,2025,4,12,19,30,38,0,0,0,0,1.5,0.8,1.2,0,0,0,0,39,0,0,0,0,0,35,38,0,31,0,0,32,0,28,37,0,33,0,37,32,0,0,0,0,0,0,0
6,11065,1,Zephyr2,0,3,   boost,122.58,101574,-20.71,-0.91,5.05,38.3,0,0,4.18,128.68,-2.47,-0.62,6.68,2.89,-8.75,-0.41,0.11,0.29,2.38,4.19,0,0,4.17,0,1,1,11,27.9333534,-80.709537,10,2025,4,12,19,30,38,0,0,0,0,1.5,0.8,1.2,0,0,0,0,39,0,0,0,0,0,35,38,0,31,0,0,32,0,28,37,0,33,0,37,32,0,0,0,0,0,0,0
6,11065,1,Zephyr2,0,3,   boost,122.58,101574,-20.71,-0.91,5.05,38.3,0,0,4.18,128.68,-2.47,-0.62,6.68,2.89,-8.75,-0.41,0.11,0.29,2.37,4.19,0,0,4.17,0,1,1,11,27.9333534,-80.709537,10,2025,4,12,19,30,38,0,0,0,0,1.5,0.8,1.2,0,0,0,0,39,0,0,0,0,0,35,38,0,31,0,0,32,0,28,37,0,33,0,37,32,0,0,0,0,0,0,0
6,11065,1,Zephyr2,0,3,   boost,122.58,101574,-20.71,-0.91,5.05,38.3,0,0,4.18,128.68,-2.47,-0.62,6.68,2.89,-8.75,-0.41,0.11,0.29,2.36,4.19,0,0,4.17,0,1,1,11,27.9333534,-80.709537,10,2025,4,12,19,30,38,0,0,0,0,1.5,0.8,1.2,0,0,0,0,39,0,0,0,0,0,35,38,0,31,0,0,32,0,28,37,0,33,0,37,32,0,0,0,0,0,0,0
6,11065,1,Zephyr2,0,3,   boost,122.58,101574,-20.71,-0.91,5.05,38.3,0,0,4.18,128.68,-2.47,-0.62,6.68,2.89,-8.75,-0.41,0.11,0.29,2.35,4.19,0,0,4.17,0,1,1,11,27.9333534,-80.709537,10,2025,4,12,19,30,38,0,0,0,0,1.5,0.8,1.2,0,0,0,0,39,0,0,0,0,0,35,38,0,31,0,0,32,0,28,37,0,33,0,37,32,0,0,0,0,0,0,0
6,11065,1,Zephyr2,0,3,   boost,122.58,101574,-20.71,-0.91,5.05,38.3,0,0,4.18,128.68,-2.47,-0.62,6.68,2.89,-8.75,-0.41,0.11,0.29,2.34,4.19,0,0,4.17,0,1,1,11,27.9333534,-80.709537,10,2025,4,12,19,30,38,0,0,0,0,1.5,0.8,1.2,0,0,0,0,39,0,0,0,0,0,35,38,0,31,0,0,32,0,28,37,0,33,0,37,32,0,0,0,0,0,0,0
6,11065,1,Zephyr2,0,3,   boost,122.58,101574,-20.71,-0.91,5.05,38.3,0,0,4.18,128.68,-2.47,-0.62,6.68,2.89,-8.75,-0.41,0.11,0.29,2.33,4.19,0,0,4.17,0,1,1,11,27.9333534,-80.709537,10,2025,4,12,19,30,38,0,0,0,0,1.5,0.8,1.2,0,0,0,0,39,0,0,0,0,0,35,38,0,31,0,0,32,0,28,37,0,33,0,37,32,0,0,0,0,0,0,0
6,11065,1,Zephyr2,0,3,   boost,122.58,101574,-20.71,-0.91,5.05,38.3,0,0,4.18,128.68,-2.47,-0.62,6.68,2.89,-8.75,-0.41,0.11,0.29,2.32,4.19,0,0,4.17,0,1,1,11,27.9333534,-80.709537,10,2025,4,12,19,30,38,0,0,0,0,1.5,0.8,1.2,0,0,0,0,39,0,0,0,0,0,35,38,0,31,0,0,32,0,28,37,0,33,0,37,32,0,0,0,0,0,0,0
6,11065,1,Zephyr2,0,3,   boost,122.58,101574,-20.71,-0.91,5.05,38.3,0,0,4.18,128.68,-2.47,-0.62,6.68,2.89,-8.75,-0.41,0.11,0.29,2.32,4.19,0,0,4.17,0,1,1,11,27.9333534,-80.709537,10,2025,4,12,19,30,38,0,0,0,0,1.5,0.8,1.2,0,0,0,0,39,0,0,0,0,0,35,38,0,31,0,0,32,0,28,37,0,33,0,37,32,0,0,0,0,0,0,0
6,11065,1,Zephyr2,0,3,   boost,122.58,101574,-20.71,-0.91,5.05,38.3,0,0,4.18,128.68,-2.47,-0.62,6.68,2.89,-8.75,-0.41,0.11,0.29,2.32,4.19,0,0,4.17,0,1,1,11,27.9333534,-80.709537,10,2025,4,12,19,30,38,0,0,0,0,1.5,0.8,1.2,0,0,0,0,39,0,0,0,0,0,35,38,0,31,0,0,32,0,28,37,0,33,0,37,32,0,0,0,0,0,0,0
6,11065,1,Zephyr2,0,3,   boost,122.58,101574,-20.71,-0.91,5.05,38.3,0,0,4.18,128.68,-2.47,-0.62,6.68,2.89,-8.75,-0.41,0.11,0.29,2.38,4.19,0,0,4.17,0,1,1,11,27.9333534,-80.709537,10,2025,4,12,19,30,38,0,0,0,0,1.5,0.8,1.2,0,0,0,0,39,0,0,0,0,0,35,38,0,31,0,0,32,0,28,37,0,33,0,37,32,0,0,0,0,0,0,0
6,11065,1,Zephyr2,0,3,   boost,122.58,101574,-20.71,-0.91,5.05,38.3,0,0,4.18,128.68,-2.47,-0.62,6.68,2.89,-8.75,-0.41,0.11,0.29,2.48,4.19,0,0,4.17,0,1,1,11,27.9333534,-80.709537,10,2025,4,12,19,30,38,0,0,0,0,1.5,0.8,1.2,0,0,0,0,39,0,0,0,0,0,35,38,0,31,0,0,32,0,28,37,0,33,0,37,32,0,0,0,0,0,0,0
6,11065,1,Zephyr2,0,3,   boost,122.58,101574,-20.71,-0.91,5.05,38.3,0,0,4.18,128.68,-2.47,-0.62,6.68,2.89,-8.75,-0.41,0.11,0.29,2.63,4.19,0,0,4.17,0,1,1,11,27.9333534,-80.709537,10,2025,4,12,19,30,38,0,0,0,0,1.5,0.8,1.2,0,0,0,0,39,0,0,0,0,0,35,38,0,31,0,0,32,0,28,37,0,33,0,37,32,0,0,0,0,0,0,0
6,11065,1,Zephyr2,0,3,   boost,122.58,101574,-20.71,-0.91,5.05,38.3,0,0,4.18,128.68,-2.47,-0.62,6.68,2.89,-8.75,-0.41,0.11,0.29,2.7,4.19,0,0,4.17,0,1,1,11,27.9333534,-80.709537,10,2025,4,12,19,30,38,0,0,0,0,1.5,0.8,1.2,0,0,0,0,39,0,0,0,0,0,35,38,0,31,0,0,32,0,28,37,0,33,0,37,32,0,0,0,0,0,0,0
6,11065,1,Zephyr2,0.01,3,   boost,128.96,101554,-19.05,0.75,6.29,38.3,0,0,4.18,136.88,-25.58,-12.18,4.42,2.1,-11.92,-0.41,0.11,0.29,2.81,4.19,0,0,4.17,0,1,1,11,27.9333534,-80.709537,10,2025,4,12,19,30,38,0,0,0,0,1.5,0.8,1.2,0,0,0,0,39,0,0,0,0,0,35,38,0,31,0,0,32,0,28,37,0,33,0,37,32,0,0,0,0,0,0,0
6,11065,1,Zephyr2,0.01,3,   boost,128.96,101554,-19.05,0.75,6.29,38.3,0,0,4.18,136.88,-25.58,-12.18,4.42,2.1,-11.92,-0.41,0.11,0.29,2.81,4.19,0,0,4.17,0,1,1,11,27.9333534,-80.709537,10,2025,4,12,19,30,38,0,0,0,0,1.5,0.8,1.2,0,0,0,0,39,0,0,0,0,0,35,38,0,31,0,0,32,0,28,37,0,33,0,37,32,0,0,0,0,0,0,0
6,11065,1,Zephyr2,0.02,3,   boost,132.88,101554,-19.05,0.75,7.59,38.3,0,0,4.18,140.93,-4.77,10.57,7.78,-0.9,-6.55,-0.41,0.11,0.29,2.87,4.19,0,0,4.18,0,1,1,11,27.9333534,-80.709537,10,2025,4,12,19,30,38,0,0,0,0,1.5,0.8,1.2,0,0,0,0,39,0,0,0,0,0,35,38,0,31,0,0,32,0,28,37,0,33,0,37,32,0,0,0,0,0,0,0
6,11065,1,Zephyr2,0.02,3,   boost,132.88,101554,-19.05,0.75,7.59,38.3,0,0,4.18,140.93,-4.77,10.57,7.78,-0.9,-6.55,-0.41,0.11,0.29,2.87,4.19,0,0,4.18,0,1,1,11,27.9333534,-80.709537,10,2025,4,12,19,30,38,0,0,0,0,1.5,0.8,1.2,0,0,0,0,39,0,0,0,0,0,35,38,0,31,0,0,32,0,28,37,0,33,0,37,32,0,0,0,0,0,0,0
6,11065,1,Zephyr2,0.03,3,   boost,141.71,101557,-19.29,0.5,8.94,38.3,0,0,4.18,148.94,-8.76,-1.8,26.21,10.15,-7.22,-0.41,0.11,0.29,2.92,4.19,0,0,4.18,0,1,1,11,27.9333534,-80.709537,10,2025,4,12,19,30,38,0,0,0,0,1.5,0.8,1.2,0,0,0,0,39,0,0,0,0,0,35,38,0,31,0,0,32,0,28,37,0,33,0,37,32,0,0,0,0,0,0,0
6,11065,1,Zephyr2,0.04,3,   boost,141.71,101557,-19.29,0.5,10.31,38.3,0,0,4.18,154.31,-9.66,-1.01,53.8,3.5,-5.88,-0.41,0.11,0.28,2.97,4.19,0,0,4.18,0,1,1,11,27.9333534,-80.709537,10,2025,4,12,19,30,38,0,0,0,0,1.5,0.8,1.2,0,0,0,0,39,0,0,0,0,0,35,38,0,31,0,0,32,0,28,37,0,33,0,37,32,0,0,0,0,0,0,0
6,11065,1,Zephyr2,0.05,3,   boost,144.65,101554,-19.05,0.75,11.7,38.3,0,0,4.18,156.71,11.55,20.08,61.13,3.07,-10.52,-0.41,0.11,0.28,3.06,4.19,0,0,4.18,0,1,1,11,27.9333534,-80.709537,10,2025,4,12,19,30,38,0,0,0,0,1.5,0.8,1.2,0,0,0,0,39,0,0,0,0,0,35,38,0,31,0,0,32,0,28,37,0,33,0,37,32,0,0,0,0,0,0,0
6,11065,1,Zephyr2,0.06,3,   boost,130.43,101554,-19.05,0.75,13.11,38.3,0,0,4.18,158.58,2.16,-14.12,32.07,0.08,-11.01,-0.41,0.11,0.28,3.17,4.19,0,0,4.18,0,1,1,11,27.9333534,-80.709537,10,2025,4,12,19,30,38,0,0,0,0,1.5,0.8,1.2,0,0,0,0,39,0,0,0,0,0,35,38,0,31,0,0,32,0,28,37,0,33,0,37,32,0,0,0,0,0,0,0
6,11065,1,Zephyr2,0.07,3,   boost,143.67,101549,-18.63,1.16,14.54,38.3,0,0,4.18,142.23,15.09,0.55,12.36,-0.71,-15.77,-0.41,0.12,0.28,3.33,4.19,0,0,4.18,0,1,1,11,27.9333534,-80.709537,10,2025,4,12,19,30,38,0,0,0,0,1.5,0.8,1.2,0,0,0,0,39,0,0,0,0,0,35,38,0,31,0,0,32,0,28,37,0,33,0,37,32,0,0,0,0,0,0,0
6,11065,1,Zephyr2,0.08,3,   boost,150.53,101549,-18.63,1.16,15.98,38.3,0,0,4.18,163.91,1.06,12.64,-27.01,-13.59,0.47,-0.41,0.12,0.28,3.35,4.19,0,0,4.18,0,1,1,11,27.9333534,-80.709537,10,2025,4,12,19,30,38,0,0,0,0,1.5,0.8,1.2,0,0,0,0,39,0,0,0,0,0,35,38,0,31,0,0,32,0,28,37,0,33,0,37,32,0,0,0,0,0,0,0
6,11065,1,Zephyr2,0.09,3,   boost,148.57,101557,-19.29,0.5,17.44,38.3,0,0,4.18,161.71,-7.4,-9.08,-45.81,-11.82,-3.93,-0.41,0.12,0.29,3.41,4.19,0,0,4.18,0,1,1,11,27.9333534,-80.709537,10,2025,4,12,19,30,38,0,0,0,0,1.5,0.8,1.2,0,0,0,0,39,0,0,0,0,0,35,38,0,31,0,0,32,0,28,37,0,33,0,37,32,0,0,0,0,0,0,0
6,11065,1,Zephyr2,0.1,3,   boost,144.65,101557,-19.29,0.5,18.92,38.3,0,0,4.18,163,8.38,9.09,-67.72,-9.38,1.63,-0.4,0.12,0.3,3.42,4.19,0,0,4.18,0,1,1,11,27.9333534,-80.709537,10,2025,4,12,19,30,38,0,0,0,0,1.5,0.8,1.2,0,0,0,0,39,0,0,0,0,0,35,38,0,31,0,0,32,0,28,37,0,33,0,37,32,0,0,0,0,0,0,0
6,11065,1,Zephyr2,0.11,3,   boost,153.47,101526,-16.72,3.07,20.43,38.3,0,0,4.18,164.27,-6.81,4.26,-45.26,-7.73,13.53,-0.43,0.17,0.25,3.32,4.19,0,0,4.18,0,1,1,11,27.9333534,-80.709537,10,2025,4,12,19,30,38,0,0,0,0,1.5,0.8,1.2,0,0,0,0,39,0,0,0,0,0,35,38,0,31,0,0,32,0,28,37,0,33,0,37,32,0,0,0,0,0,0,0
6,11065,1,Zephyr2,0.12,3,   boost,157.89,101526,-16.72,3.07,21.95,38.3,0,0,4.18,165.4,-3.48,1.68,-11.51,-12.37,0.89,-0.43,0.17,0.25,3.35,4.19,0,0,4.18,0,1,1,11,27.9333534,-80.709537,10,2025,4,12,19,30,38,0,0,0,0,1.5,0.8,1.2,0,0,0,0,39,0,0,0,0,0,35,38,0,31,0,0,32,0,28,37,0,33,0,37,32,0,0,0,0,0,0,0
6,11065,1,Zephyr2,0.13,3,   boost,151.51,101527,-16.8,2.99,23.49,38.3,0,0,4.18,170.08,4.44,-10.4,7.66,-8.16,0.95,-0.41,0.13,0.28,3.37,4.19,0,0,4.18,0,1,1,11,27.9333534,-80.709537,10,2025,4,12,19,30,38,0,0,0,0,1.5,0.8,1.2,0,0,0,0,39,0,0,0,0,0,35,38,0,31,0,0,32,0,28,37,0,33,0,37,32,0,0,0,0,0,0,0
6,11065,1,Zephyr2,0.14,3,   boost,156.91,101527,-16.8,2.99,25.04,38.3,0,0,4.18,172.8,-5.04,-7.98,32.5,-4.19,5.17,-0.41,0.13,0.28,3.34,4.19,0,0,4.18,0,1,1,11,27.9333534,-80.709537,10,2025,4,12,19,30,38,0,0,0,0,1.5,0.8,1.2,0,0,0,0,39,0,0,0,0,0,35,38,0,31,0,0,32,0,28,37,0,33,0,37,32,0,0,0,0,0,0,0
6,11065,1,Zephyr2,0.15,3,   boost,158.38,101536,-17.55,2.24,26.61,38.2,0,0,4.18,169.16,-12.4,0.73,28.72,-12.19,1.93,-0.41,0.12,0.28,3.37,4.19,0,0,4.18,0,1,1,11,27.9333534,-80.709537,10,2025,4,12,19,30,38,0,0,0,0,1.5,0.8,1.2,0,0,0,0,39,0,0,0,0,0,35,38,0,31,0,0,32,0,28,37,0,33,0,37,32,0,0,0,0,0,0,0
6,11065,1,Zephyr2,0.16,3,   boost,159.36,101536,-17.55,2.24,28.19,38.2,0,0,4.18,172.83,-7.94,-10.74,47.82,-15.36,1.26,-0.41,0.11,0.29,3.43,4.19,0,0,4.18,0,1,1,11,27.9333534,-80.709537,10,2025,4,12,19,30,38,0,0,0,0,1.5,0.8,1.2,0,0,0,0,39,0,0,0,0,0,35,38,0,31,0,0,32,0,28,37,0,33,0,37,32,0,0,0,0,0,0,0
6,11065,1,Zephyr2,0.17,3,   boost,160.83,101537,-17.63,2.16,29.79,38.3,0,0,4.18,173.47,-13.68,-13.18,63.32,-15.85,4.31,-0.41,0.11,0.29,3.47,4.19,0,0,4.18,0,1,1,11,27.9333534,-80.709537,10,2025,4,12,19,30,38,0,0,0,0,1.5,0.8,1.2,0,0,0,0,39,0,0,0,0,0,35,38,0,31,0,0,32,0,28,37,0,33,0,37,32,0,0,0,0,0,0,0
6,11065,1,Zephyr2,0.18,3,   boost,161.32,101537,-17.63,2.16,31.39,38.3,0,0,4.18,176.14,-6.54,10.82,87.74,-10.6,7,-0.41,0.1,0.29,3.46,4.19,0,0,4.18,0,1,1,11,27.9333534,-80.709537,10,2025,4,12,19,30,38,0,0,0,0,1.5,0.8,1.2,0,0,0,0,39,0,0,0,0,0,35,38,0,31,0,0,32,0,28,37,0,33,0,37,32,0,0,0,0,0,0,0
6,11065,1,Zephyr2,0.19,3,   boost,159.85,101527,-16.8,2.99,33.01,38.3,0,0,4.18,177.05,-10.86,-2.03,82.24,-18.47,2.66,-0.41,0.1,0.28,3.54,4.19,0,0,4.18,0,1,1,11,27.9333534,-80.709537,10,2025,4,12,19,30,38,0,0,0,0,1.5,0.8,1.2,0,0,0,0,39,0,0,0,0,0,35,38,0,31,0,0,32,0,28,37,0,33,0,37,32,0,0,0,0,0,0,0
6,11065,1,Zephyr2,0.2,3,   boost,167.69,101527,-16.8,2.99,34.64,38.3,0,0,4.18,176.88,7.13,7.87,89.57,-15.97,4.19,-0.41,0.1,0.28,3.59,4.19,0,0,4.18,0,1,1,11,27.9333534,-80.709537,10,2025,4,12,19,30,38,0,0,0,0,1.5,0.8,1.2,0,0,0,0,39,0,0,0,0,0,35,38,0,31,0,0,32,0,28,37,0,33,0,37,32,0,0,0,0,0,0,0
6,11065,1,Zephyr2,0.21,3,   boost,166.71,101549,-18.63,1.16,36.26,38.2,0,0,4.18,181.18,-5.19,1.37,76.02,-12.49,1.99,-0.41,0.1,0.28,3.64,4.19,0,0,4.18,0,1,1,11,27.9333534,-80.709537,10,2025,4,12,19,30,38,0,0,0,0,1.5,0.8,1.2,0,0,0,0,39,0,0,0,0,0,35,38,0,31,0,0,32,0,28,37,0,33,0,37,32,0,0,0,0,0,0,0
6,11065,1,Zephyr2,0.22,3,   boost,166.71,101549,-18.63,1.16,37.88,38.2,0,0,4.18,182.77,-4.68,0.3,72.9,-9.38,-7.1,-0.41,0.1,0.28,3.75,4.19,0,0,4.18,0,1,1,11,27.9333534,-80.709537,10,2025,4,12,19,30,38,0,0,0,0,1.5,0.8,1.2,0,0,0,0,39,0,0,0,0,0,35,38,0,31,0,0,32,0,28,37,0,33,0,37,32,0,0,0,0,0,0,0
6,11065,1,Zephyr2,0.23,3,   boost,142.69,101501,-14.64,5.15,39.5,38.3,0,0,4.18,184.03,0.27,0.92,70.95,-9.14,-6.43,-0.41,0.1,0.28,3.86,4.19,0,0,4.18,0,1,1,11,27.9333534,-80.709537,10,2025,4,12,19,30,38,0,0,0,0,1.5,0.8,1.2,0,0,0,0,39,0,0,0,0,0,35,38,0,31,0,0,32,0,28,37,0,33,0,37,32,0,0,0,0,0,0,0
6,11065,1,Zephyr2,0.24,3,   boost,170.15,101501,-14.64,5.15,41.12,38.3,0,0,4.18,178.95,-13.49,-11.43,41.11,-14.26,-4.6,-0.41,0.1,0.27,3.98,4.19,0,0,4.18,0,1,1,11,27.9333534,-80.709537,10,2025,4,12,19,30,38,0,0,0,0,1.5,0.8,1.2,0,0,0,0,39,0,0,0,0,0,35,38,0,31,0,0,32,0,28,37,0,33,0,37,32,0,0,0,0,0,0,0
6,11065,1,Zephyr2,0.25,3,   boost,163.77,101498,-14.39,5.4,42.76,38.3,0,0,4.18,183.29,-11.19,-5.18,81.82,-11.15,-2.89,-0.41,0.1,0.27,4.07,4.19,0,0,4.18,0,1,1,11,27.9333534,-80.709537,10,2025,4,12,19,30,38,0,0,0,0,1.5,0.8,1.2,0,0,0,0,39,0,0,0,0,0,35,38,0,31,0,0,32,0,28,37,0,33,0,37,32,0,0,0,0,0,0,0
6,11065,1,Zephyr2,0.26,3,   boost,171.13,101498,-14.39,5.4,44.42,38.3,0,0,4.18,184.55,-2.71,-4.23,115.51,-20.43,-2.83,-0.41,0.09,0.27,4.21,4.19,0,0,4.18,0,1,1,11,27.9333534,-80.709537,10,2025,4,12,19,30,38,0,0,0,0,1.5,0.8,1.2,0,0,0,0,39,0,0,0,0,0,35,38,0,31,0,0,32,0,28,37,0,33,0,37,32,0,0,0,0,0,0,0
6,11065,1,Zephyr2,0.26,3,   boost,171.13,101498,-14.39,5.4,44.42,38.3,0,0,4.18,184.55,-2.71,-4.23,115.51,-20.43,-2.83,-0.41,0.09,0.27,4.21,4.19,0,0,4.18,0,1,1,11,27.9333534,-80.709537,10,2025,4,12,19,30,38,0,0,0,0,1.5,0.8,1.2,0,0,0,0,39,0,0,0,0,0,35,38,0,31,0,0,32,0,28,37,0,33,0,37,32,0,0,0,0,0,0,0
6,11065,1,Zephyr2,0.26,3,   boost,171.13,101498,-14.39,5.4,44.42,38.3,0,0,4.18,184.55,-2.71,-4.23,115.51,-20.43,-2.83,-0.41,0.09,0.27,4.21,4.19,0,0,4.18,0,1,1,11,27.9333534,-80.709537,10,2025,4,12,19,30,38,0,0,0,0,1.5,0.8,1.2,0,0,0,0,39,0,0,0,0,0,35,38,0,31,0,0,32,0,28,37,0,33,0,37,32,0,0,0,0,0,0,0
6,11065,1,Zephyr2,0.27,3,   boost,170.15,101503,-14.81,4.99,46.09,38.3,0,0,4.18,186.94,-8.22,3.43,132.66,-18.41,-6.55,-0.41,0.09,0.26,4.38,4.19,0,0,4.18,0,1,1,11,27.9333411,-80.7095302,15,2025,4,12,19,30,39,2,5,154,73,1.5,0.8,1.2,0,0,0,0,39,0,0,0,0,0,25,26,0,30,0,0,31,0,19,26,0,38,0,38,29,0,0,0,0,0,0,0
6,11065,1,Zephyr2,0.28,3,   boost,170.15,101503,-14.81,4.99,47.77,38.3,0,0,4.18,188.76,-2.24,3.13,119.84,-13.22,-8.26,-0.41,0.09,0.26,4.52,4.19,0,0,4.18,0,1,1,11,27.9333411,-80.7095302,15,2025,4,12,19,30,39,2,5,154,73,1.5,0.8,1.2,0,0,0,0,39,0,0,0,0,0,25,26,0,30,0,0,31,0,19,26,0,38,0,38,29,0,0,0,0,0,0,0
6,11065,1,Zephyr2,0.29,3,   boost,158.38,101478,-12.73,7.06,49.46,38.3,0,0,4.18,188.79,-1.34,1.43,100.37,-9.99,-8.02,-0.41,0.09,0.26,4.65,4.19,0,0,4.18,0,1,1,11,27.9333411,-80.7095302,15,2025,4,12,19,30,39,2,5,154,73,1.5,0.8,1.2,0,0,0,0,39,0,0,0,0,0,25,26,0,30,0,0,31,0,19,26,0,38,0,38,29,0,0,0,0,0,0,0
6,11065,1,Zephyr2,0.3,3,   boost,178.48,101478,-12.73,7.06,51.17,38.3,0,0,4.18,191.43,-8.56,-5.3,57.59,-5.53,-12.72,-0.41,0.09,0.25,4.78,4.19,0,0,4.18,0,1,1,11,27.9333411,-80.7095302,15,2025,4,12,19,30,39,2,5,154,73,1.5,0.8,1.2,0,0,0,0,39,0,0,0,0,0,25,26,0,30,0,0,31,0,19,26,0,38,0,38,29,0,0,0,0,0,0,0
6,11065,1,Zephyr2,0.31,3,   boost,178.97,101493,-13.98,5.82,52.9,38.2,0,0,4.18,189.74,-2.04,-3.53,52.7,-5.47,-13.88,-0.41,0.09,0.25,4.93,4.19,0,0,4.18,0,1,1,11,27.9333411,-80.7095302,15,2025,4,12,19,30,39,2,5,154,73,1.5,0.8,1.2,0,0,0,0,39,0,0,0,0,0,25,26,0,30,0,0,31,0,19,26,0,38,0,38,29,0,0,0,0,0,0,0
6,11065,1,Zephyr2,0.32,3,   boost,175.05,101493,-13.98,5.82,54.65,38.2,0,0,4.18,193.32,-7.22,-11.11,26.09,-10.23,-12.05,-0.41,0.09,0.25,5.08,4.19,0,0,4.18,0,1,1,11,27.9333411,-80.7095302,15,2025,4,12,19,30,39,2,5,154,73,1.5,0.8,1.2,0,0,0,0,39,0,0,0,0,0,25,26,0,30,0,0,31,0,19,26,0,38,0,38,29,0,0,0,0,0,0,0
6,11065,1,Zephyr2,0.33,3,   boost,178.48,101472,-12.23,7.56,56.4,38.3,0,0,4.18,194.21,-7.07,-2.83,22.31,-11.52,-13.08,-0.41,0.09,0.25,5.26,4.19,0,0,4.18,0,1,1,11,27.9333411,-80.7095302,15,2025,4,12,19,30,39,2,5,154,73,1.5,0.8,1.2,0,0,0,0,39,0,0,0,0,0,25,26,0,30,0,0,31,0,19,26,0,38,0,38,29,0,0,0,0,0,0,0
6,11065,1,Zephyr2,0.34,3,   boost,175.54,101472,-12.23,7.56,58.17,38.3,0,0,4.18,194.76,-3.37,-3.14,21.21,-13.59,-13.76,-0.41,0.09,0.25,5.45,4.19,0,0,4.18,0,1,1,11,27.9333411,-80.7095302,15,2025,4,12,19,30,39,2,5,154,73,1.5,0.8,1.2,0,0,0,0,39,0,0,0,0,0,25,26,0,30,0,0,31,0,19,26,0,38,0,38,29,0,0,0,0,0,0,0
6,11065,1,Zephyr2,0.34,3,   boost,175.54,101472,-12.23,7.56,58.17,38.3,0,0,4.18,194.76,-3.37,-3.14,21.21,-13.59,-13.76,-0.41,0.09,0.25,5.45,4.19,0,0,4.18,0,1,1,11,27.9333411,-80.7095302,15,2025,4,12,19,30,39,2,5,154,73,1.5,0.8,1.2,0,0,0,0,39,0,0,0,0,0,25,26,0,30,0,0,31,0,19,26,0,38,0,38,29,0,0,0,0,0,0,0
6,11065,1,Zephyr2,0.35,3,   boost,177.01,101448,-10.23,9.56,59.93,38.3,0,0,4.18,195.89,-2.62,0.42,21.7,-11.52,-13.21,-0.41,0.09,0.25,5.62,4.19,0,0,4.18,0,1,1,11,27.9333411,-80.7095302,15,2025,4,12,19,30,39,2,5,154,73,1.5,0.8,1.2,0,0,0,0,39,0,0,0,0,0,25,26,0,30,0,0,31,0,19,26,0,38,0,38,29,0,0,0,0,0,0,0
6,11065,1,Zephyr2,0.36,3,   boost,178.97,101448,-10.23,9.56,61.7,38.3,0,0,4.18,196.07,-5.73,5.45,22.06,-8.65,-16.87,-0.41,0.09,0.25,5.81,4.19,0,0,4.18,0,1,1,11,27.9333411,-80.7095302,15,2025,4,12,19,30,39,2,5,154,73,1.5,0.8,1.2,0,0,0,0,39,0,0,0,0,0,25,26,0,30,0,0,31,0,19,26,0,38,0,38,29,0,0,0,0,0,0,0
6,11065,1,Zephyr2,0.37,3,   boost,178.48,101446,-10.07,9.73,63.47,38.3,0,0,4.18,196.89,-3.02,0.89,19.56,-5.29,-19.31,-0.41,0.09,0.25,6,4.19,0,0,4.18,0,1,1,11,27.9333411,-80.7095302,15,2025,4,12,19,30,39,2,5,154,73,1.5,0.8,1.2,0,0,0,0,39,0,0,0,0,0,25,26,0,30,0,0,31,0,19,26,0,38,0,38,29,0,0,0,0,0,0,0
6,11065,1,Zephyr2,0.38,3,   boost,176.52,101446,-10.07,9.73,65.24,38.3,0,0,4.18,197.38,-4.91,-0.19,15.9,-3.21,-18.58,-0.41,0.09,0.25,6.17,4.19,0,0,4.18,0,1,1,11,27.9333411,-80.7095302,15,2025,4,12,19,30,39,2,5,154,73,1.5,0.8,1.2,0,0,0,0,39,0,0,0,0,0,25,26,0,30,0,0,31,0,19,26,0,38,0,38,29,0,0,0,0,0,0,0
6,11065,1,Zephyr2,0.39,3,   boost,178.97,101443,-9.82,9.97,67.02,38.3,0,0,4.18,198.1,-7.18,-1.37,12.97,-6.39,-19.68,-0.41,0.09,0.25,6.38,4.19,0,0,4.18,0,1,1,11,27.9333411,-80.7095302,15,2025,4,12,19,30,39,2,5,154,73,1.5,0.8,1.2,0,0,0,0,39,0,0,0,0,0,25,26,0,30,0,0,31,0,19,26,0,38,0,38,29,0,0,0,0,0,0,0
6,11065,1,Zephyr2,0.4,3,   boost,182.4,101443,-9.82,9.97,68.81,38.3,0,0,4.18,198.72,-5.21,-5.38,7.84,-8.71,-19.92,-0.41,0.09,0.25,6.59,4.19,0,0,4.18,0,1,1,11,27.9333411,-80.7095302,15,2025,4,12,19,30,39,2,5,154,73,1.5,0.8,1.2,0,0,0,0,39,0,0,0,0,0,25,26,0,30,0,0,31,0,19,26,0,38,0,38,29,0,0,0,0,0,0,0
6,11065,1,Zephyr2,0.41,3,   boost,180.44,101434,-9.07,10.72,70.6,38.3,0,0,4.18,199.48,-3.91,-4.43,0.76,-8.59,-18.64,-0.41,0.09,0.25,6.79,4.19,0,0,4.18,0,1,1,11,27.9333411,-80.7095302,15,2025,4,12,19,30,39,2,5,154,73,1.5,0.8,1.2,0,0,0,0,39,0,0,0,0,0,25,26,0,30,0,0,31,0,19,26,0,38,0,38,29,0,0,0,0,0,0,0
6,11065,1,Zephyr2,0.42,3,   boost,180.93,101434,-9.07,10.72,72.39,38.3,0,0,4.18,199.71,-3.06,0.85,0.21,-10.97,-19,-0.41,0.09,0.25,7.01,4.19,0,0,4.18,0,1,1,11,27.9333411,-80.7095302,15,2025,4,12,19,30,39,2,5,154,73,1.5,0.8,1.2,0,0,0,0,39,0,0,0,0,0,25,26,0,30,0,0,31,0,19,26,0,38,0,38,29,0,0,0,0,0,0,0
6,11065,1,Zephyr2,0.43,3,   boost,183.38,101408,-6.91,12.89,74.19,38.3,0,0,4.18,199.75,-2.44,0.02,0.15,-10.05,-21.69,-0.41,0.1,0.25,7.25,4.19,0,0,4.18,0,1,1,11,27.9333411,-80.7095302,15,2025,4,12,19,30,39,2,5,154,73,1.5,0.8,1.2,0,0,0,0,39,0,0,0,0,0,25,26,0,30,0,0,31,0,19,26,0,38,0,38,29,0,0,0,0,0,0,0
6,11065,1,Zephyr2,0.44,3,   boost,177.5,101408,-6.91,12.89,75.99,38.3,0,0,4.18,200.31,-3.17,0.38,0.52,-7.85,-23.83,-0.41,0.1,0.26,7.5,4.19,0,0,4.18,0,1,1,11,27.9333411,-80.7095302,15,2025,4,12,19,30,39,2,5,154,73,1.5,0.8,1.2,0,0,0,0,39,0,0,0,0,0,25,26,0,30,0,0,31,0,19,26,0,38,0,38,29,0,0,0,0,0,0,0
6,11065,1,Zephyr2,0.45,3,   boost,183.38,101402,-6.41,13.39,77.79,38.3,0,0,4.18,200.75,-4.9,2.31,-0.09,-6.45,-25.05,-0.41,0.1,0.26,7.75,4.19,0,0,4.18,0,1,1,11,27.9333411,-80.7095302,15,2025,4,12,19,30,39,2,5,154,73,1.5,0.8,1.2,0,0,0,0,39,0,0,0,0,0,25,26,0,30,0,0,31,0,19,26,0,38,0,38,29,0,0,0,0,0,0,0
6,11065,1,Zephyr2,0.46,3,   boost,182.89,101402,-6.41,13.39,79.59,38.3,0,0,4.18,200.95,-5.27,-2.74,-2.9,-6.02,-24.99,-0.41,0.1,0.25,7.99,4.19,0,0,4.18,0,1,1,11,27.9333411,-80.7095302,15,2025,4,12,19,30,39,2,5,154,73,1.5,0.8,1.2,0,0,0,0,39,0,0,0,0,0,25,26,0,30,0,0,31,0,19,26,0,38,0,38,29,0,0,0,0,0,0,0
6,11065,1,Zephyr2,0.47,3,   boost,182.89,101373,-3.99,15.8,81.39,38.3,0,0,4.18,201.34,-5.53,-1.5,-4.85,-7.06,-23.83,-0.42,0.1,0.26,8.24,4.19,0,0,4.18,0,1,1,11,27.9333411,-80.7095302,15,2025,4,12,19,30,39,2,5,154,73,1.5,0.8,1.2,0,0,0,0,39,0,0,0,0,0,25,26,0,30,0,0,31,0,19,26,0,38,0,38,29,0,0,0,0,0,0,0
6,11065,1,Zephyr2,0.48,3,   boost,182.4,101373,-3.99,15.8,83.2,38.3,0,0,4.18,201.88,-4.94,-2.54,-6.5,-9.38,-24.13,-0.42,0.1,0.26,8.49,4.19,0,0,4.18,0,1,1,11,27.9333411,-80.7095302,15,2025,4,12,19,30,39,2,5,154,73,1.5,0.8,1.2,0,0,0,0,39,0,0,0,0,0,25,26,0,30,0,0,31,0,19,26,0,38,0,38,29,0,0,0,0,0,0,0
6,11065,1,Zephyr2,0.49,3,   boost,182.4,101378,-4.41,15.38,85,38.3,0,0,4.18,202.36,-1.98,-3.23,-6.62,-10.66,-24.31,-0.42,0.1,0.26,8.76,4.19,0,0,4.18,0,1,1,11,27.9333411,-80.7095302,15,2025,4,12,19,30,39,2,5,154,73,1.5,0.8,1.2,0,0,0,0,39,0,0,0,0,0,25,26,0,30,0,0,31,0,19,26,0,38,0,38,29,0,0,0,0,0,0,0
6,11065,1,Zephyr2,0.5,3,   boost,183.38,101378,-4.41,15.38,86.82,38.3,0,0,4.18,202.75,-0.64,-0.7,-4.91,-9.5,-25.11,-0.42,0.11,0.26,9.02,4.19,0,0,4.18,0,1,1,11,27.9333411,-80.7095302,15,2025,4,12,19,30,39,2,5,154,73,1.5,0.8,1.2,0,0,0,0,39,0,0,0,0,0,25,26,0,30,0,0,31,0,19,26,0,38,0,38,29,0,0,0,0,0,0,0
6,11065,1,Zephyr2,0.51,3,   boost,183.38,101348,-1.91,17.88,88.63,38.3,0,0,4.18,203.02,-2.49,-0.69,-2.6,-8.65,-27.43,-0.42,0.11,0.26,9.31,4.19,0,0,4.18,0,1,1,11,27.9333411,-80.7095302,15,2025,4,12,19,30,39,2,5,154,73,1.5,0.8,1.2,0,0,0,0,39,0,0,0,0,0,25,26,0,30,0,0,31,0,19,26,0,38,0,38,29,0,0,0,0,0,0,0
6,11065,1,Zephyr2,0.52,3,   boost,185.35,101348,-1.91,17.88,90.45,38.3,0,0,4.18,203.79,-1.2,-0.81,-0.7,-7.91,-28.95,-0.42,0.11,0.26,9.6,4.19,0,0,4.18,0,1,1,11,27.9333411,-80.7095302,15,2025,4,12,19,30,39,2,5,154,73,1.5,0.8,1.2,0,0,0,0,39,0,0,0,0,0,25,26,0,30,0,0,31,0,19,26,0,38,0,38,29,0,0,0,0,0,0,0
6,11065,1,Zephyr2,0.53,3,   boost,188.29,101338,-1.08,18.71,92.28,38.3,0,0,4.18,203.77,-3.71,-1.31,-0.76,-7.79,-28.4,-0.42,0.11,0.26,9.89,4.19,0,0,4.18,0,1,1,11,27.9333411,-80.7095302,15,2025,4,12,19,30,39,2,5,154,73,1.5,0.8,1.2,0,0,0,0,39,0,0,0,0,0,25,26,0,30,0,0,31,0,19,26,0,38,0,38,29,0,0,0,0,0,0,0
6,11065,1,Zephyr2,0.54,3,   boost,184.86,101338,-1.08,18.71,94.11,38.3,0,0,4.18,204.08,-4.47,-1.91,-1.8,-8.52,-27.98,-0.42,0.11,0.26,10.18,4.19,0,0,4.18,0,1,1,11,27.9333411,-80.7095302,15,2025,4,12,19,30,39,2,5,154,73,1.5,0.8,1.2,0,0,0,0,39,0,0,0,0,0,25,26,0,30,0,0,31,0,19,26,0,38,0,38,29,0,0,0,0,0,0,0
6,11065,1,Zephyr2,0.55,3,   boost,186.82,101310,1.25,21.04,95.94,38.3,0,0,4.18,204.78,-2.12,-2.06,-3.63,-9.5,-27.06,-0.42,0.11,0.26,10.46,4.19,0,0,4.18,0,1,1,11,27.9333411,-80.7095302,15,2025,4,12,19,30,39,2,5,154,73,1.5,0.8,1.2,0,0,0,0,39,0,0,0,0,0,25,26,0,30,0,0,31,0,19,26,0,38,0,38,29,0,0,0,0,0,0,0
6,11065,1,Zephyr2,0.56,3,   boost,187.31,101310,1.25,21.04,97.77,38.3,0,0,4.18,204.83,-2.14,-1.85,-3.57,-10.11,-26.63,-0.42,0.11,0.26,10.74,4.19,0,0,4.18,0,1,1,11,27.9333411,-80.7095302,15,2025,4,12,19,30,39,2,5,154,73,1.5,0.8,1.2,0,0,0,0,39,0,0,0,0,0,25,26,0,30,0,0,31,0,19,26,0,38,0,38,29,0,0,0,0,0,0,0
6,11065,1,Zephyr2,0.57,3,   boost,185.84,101296,2.41,22.21,99.6,38.3,0,0,4.18,205.54,-0.11,-0.95,-2.53,-9.81,-28.46,-0.42,0.12,0.26,11.04,4.19,0,0,4.18,0,1,1,11,27.9333411,-80.7095302,15,2025,4,12,19,30,39,2,5,154,73,1.5,0.8,1.2,0,0,0,0,39,0,0,0,0,0,25,26,0,30,0,0,31,0,19,26,0,38,0,38,29,0,0,0,0,0,0,0
6,11065,1,Zephyr2,0.58,3,   boost,187.31,101296,2.41,22.21,101.43,38.3,0,0,4.18,205.58,1.31,-2.21,0.64,-8.83,-28.65,-0.43,0.12,0.26,11.34,4.19,0,0,4.18,0,1,1,11,27.9333411,-80.7095302,15,2025,4,12,19,30,39,2,5,154,73,1.5,0.8,1.2,0,0,0,0,39,0,0,0,0,0,25,26,0,30,0,0,31,0,19,26,0,38,0,38,29,0,0,0,0,0,0,0
6,11065,1,Zephyr2,0.59,3,   boost,187.8,101281,3.66,23.46,103.27,38.3,0,0,4.18,206.41,-0.07,-1.97,3.02,-8.1,-29.99,-0.43,0.12,0.26,11.64,4.19,0,0,4.18,0,1,1,11,27.9333411,-80.7095302,15,2025,4,12,19,30,39,2,5,154,73,1.5,0.8,1.2,0,0,0,0,39,0,0,0,0,0,25,26,0,30,0,0,31,0,19,26,0,38,0,38,29,0,0,0,0,0,0,0
6,11065,1,Zephyr2,0.6,3,   boost,186.82,101281,3.66,23.46,105.1,38.3,0,0,4.18,207.03,0.74,-2.52,4.97,-8.71,-30.54,-0.43,0.12,0.26,11.96,4.19,0,0,4.18,0,1,1,11,27.9333411,-80.7095302,15,2025,4,12,19,30,39,2,5,154,73,1.5,0.8,1.2,0,0,0,0,39,0,0,0,0,0,25,26,0,30,0,0,31,0,19,26,0,38,0,38,29,0,0,0,0,0,0,0
6,11065,1,Zephyr2,0.61,3,   boost,188.78,101258,5.58,25.37,106.94,38.3,0,0,4.18,207.33,0.2,-3.98,4.06,-9.2,-28.46,-0.43,0.12,0.26,12.25,4.19,0,0,4.18,0,1,1,11,27.9333411,-80.7095302,15,2025,4,12,19,30,39,2,5,154,73,1.5,0.8,1.2,0,0,0,0,39,0,0,0,0,0,25,26,0,30,0,0,31,0,19,26,0,38,0,38,29,0,0,0,0,0,0,0
6,11065,1,Zephyr2,0.62,3,   boost,188.29,101258,5.58,25.37,108.78,38.3,0,0,4.18,207.59,0.61,-2.37,1.37,-9.93,-27.24,-0.43,0.12,0.26,12.54,4.19,0,0,4.18,0,1,1,11,27.9333411,-80.7095302,15,2025,4,12,19,30,39,2,5,154,73,1.5,0.8,1.2,0,0,0,0,39,0,0,0,0,0,25,26,0,30,0,0,31,0,19,26,0,38,0,38,29,0,0,0,0,0,0,0
6,11065,1,Zephyr2,0.63,3,   boost,191.72,101238,7.24,27.04,110.61,38.2,0,0,4.18,207.53,2.95,-3.43,0.21,-10.48,-26.45,-0.43,0.13,0.26,12.82,4.19,0,0,4.18,0,1,1,11,27.9333411,-80.7095302,15,2025,4,12,19,30,39,2,5,154,73,1.5,0.8,1.2,0,0,0,0,39,0,0,0,0,0,25,26,0,30,0,0,31,0,19,26,0,38,0,38,29,0,0,0,0,0,0,0
6,11065,1,Zephyr2,0.64,3,   boost,186.82,101238,7.24,27.04,112.45,38.2,0,0,4.18,208.26,4.12,-3.27,-3.08,-9.38,-25.6,-0.43,0.13,0.27,13.1,4.19,0,0,4.18,0,1,1,11,27.9333411,-80.7095302,15,2025,4,12,19,30,39,2,5,154,73,1.5,0.8,1.2,0,0,0,0,39,0,0,0,0,0,25,26,0,30,0,0,31,0,19,26,0,38,0,38,29,0,0,0,0,0,0,0
6,11065,1,Zephyr2,0.65,3,   boost,187.31,101224,8.41,28.2,114.28,38.3,0,0,4.18,207.9,4.38,-3.05,-6.07,-7.79,-26.45,-0.43,0.13,0.27,13.37,4.19,0,0,4.18,0,1,1,11,27.9333411,-80.7095302,15,2025,4,12,19,30,39,2,5,154,73,1.5,0.8,1.2,0,0,0,0,39,0,0,0,0,0,25,26,0,30,0,0,31,0,19,26,0,38,0,38,29,0,0,0,0,0,0,0
6,11065,1,Zephyr2,0.66,3,   boost,188.78,101224,8.41,28.2,116.12,38.3,0,0,4.18,208.48,5.04,-4.35,-10.04,-7.12,-26.45,-0.43,0.13,0.27,13.64,4.2,0,0,4.19,0,1,1,11,27.9333411,-80.7095302,15,2025,4,12,19,30,39,2,5,154,73,1.5,0.8,1.2,0,0,0,0,39,0,0,0,0,0,25,26,0,30,0,0,31,0,19,26,0,38,0,38,29,0,0,0,0,0,0,0
6,11065,1,Zephyr2,0.66,3,   boost,188.78,101224,8.41,28.2,116.12,38.3,0,0,4.18,208.48,5.04,-4.35,-10.04,-7.12,-26.45,-0.43,0.13,0.27,13.64,4.2,0,0,4.19,0,1,1,11,27.9333411,-80.7095302,15,2025,4,12,19,30,39,2,5,154,73,1.5,0.8,1.2,0,0,0,0,39,0,0,0,0,0,25,26,0,30,0,0,31,0,19,26,0,38,0,38,29,0,0,0,0,0,0,0
6,11065,1,Zephyr2,0.67,3,   boost,189.27,101213,9.33,29.12,117.95,38.3,0,0,4.18,209.06,3.76,-5.59,-13.77,-7.24,-25.35,-0.43,0.13,0.27,13.9,4.2,0,0,4.19,0,1,1,11,27.9333411,-80.7095302,15,2025,4,12,19,30,39,2,5,154,73,1.5,0.8,1.2,0,0,0,0,39,0,0,0,0,0,25,26,0,30,0,0,31,0,19,26,0,38,0,38,29,0,0,0,0,0,0,0
6,11065,1,Zephyr2,0.68,3,   boost,190.25,101213,9.33,29.12,119.78,38.3,0,0,4.18,208.78,3.85,-4.86,-20.78,-7.3,-23.22,-0.43,0.13,0.27,14.14,4.2,0,0,4.19,0,1,1,11,27.9333411,-80.7095302,15,2025,4,12,19,30,39,2,5,154,73,1.5,0.8,1.2,0,0,0,0,39,0,0,0,0,0,25,26,0,30,0,0,31,0,19,26,0,38,0,38,29,0,0,0,0,0,0,0
6,11065,1,Zephyr2,0.69,3,   boost,189.76,101175,12.49,32.29,121.61,38.3,0,0,4.18,209.49,4.4,-4.91,-26.28,-7.67,-21.2,-0.43,0.14,0.27,14.36,4.2,0,0,4.19,0,1,1,11,27.9333411,-80.7095302,15,2025,4,12,19,30,39,2,5,154,73,1.5,0.8,1.2,0,0,0,0,39,0,0,0,0,0,25,26,0,30,0,0,31,0,19,26,0,38,0,38,29,0,0,0,0,0,0,0
6,11065,1,Zephyr2,0.7,3,   boost,186.82,101175,12.49,32.29,123.43,38.3,0,0,4.18,210.39,5.49,-4.62,-31.22,-7.18,-20.04,-0.44,0.14,0.27,14.58,4.2,0,0,4.19,0,1,1,11,27.9333411,-80.7095302,15,2025,4,12,19,30,39,2,5,154,73,1.5,0.8,1.2,0,0,0,0,39,0,0,0,0,0,25,26,0,30,0,0,31,0,19,26,0,38,0,38,29,0,0,0,0,0,0,0
6,11065,1,Zephyr2,0.71,3,   boost,188.78,101166,13.24,33.04,125.25,38.3,0,0,4.18,209.87,7.27,-4.22,-35.31,-5.84,-19.31,-0.44,0.14,0.28,14.78,4.2,0,0,4.19,0,1,1,11,27.9333411,-80.7095302,15,2025,4,12,19,30,39,2,5,154,73,1.5,0.8,1.2,0,0,0,0,39,0,0,0,0,0,25,26,0,30,0,0,31,0,19,26,0,38,0,38,29,0,0,0,0,0,0,0
6,11065,1,Zephyr2,0.72,3,   boost,187.8,101166,13.24,33.04,127.08,38.3,0,0,4.18,210.24,7.16,-4.66,-38.42,-5.17,-18.94,-0.44,0.14,0.28,14.97,4.2,0,0,4.19,0,1,1,11,27.9333411,-80.7095302,15,2025,4,12,19,30,39,2,5,154,73,1.5,0.8,1.2,0,0,0,0,39,0,0,0,0,0,25,26,0,30,0,0,31,0,19,26,0,38,0,38,29,0,0,0,0,0,0,0
6,11065,1,Zephyr2,0.73,3,   boost,190.74,101137,15.66,35.45,128.91,38.3,0,0,4.18,210.21,7.87,-4.7,-42.09,-4.98,-17.91,-0.44,0.14,0.28,15.15,4.2,0,0,4.19,0,1,1,11,27.9333411,-80.7095302,15,2025,4,12,19,30,39,2,5,154,73,1.5,0.8,1.2,0,0,0,0,39,0,0,0,0,0,25,26,0,30,0,0,31,0,19,26,0,38,0,38,29,0,0,0,0,0,0,0
6,11065,1,Zephyr2,0.74,3,   boost,190.25,101137,15.66,35.45,130.74,38.3,0,0,4.18,210.26,7.06,-5.8,-46.36,-4.68,-16.32,-0.44,0.14,0.28,15.32,4.2,0,0,4.19,0,1,1,11,27.9333411,-80.7095302,15,2025,4,12,19,30,39,2,5,154,73,1.5,0.8,1.2,0,0,0,0,39,0,0,0,0,0,25,26,0,30,0,0,31,0,19,26,0,38,0,38,29,0,0,0,0,0,0,0
6,11065,1,Zephyr2,0.75,3,   boost,193.19,101129,16.33,36.12,132.58,38.3,0,0,4.18,210.78,7.43,-5.36,-52.28,-4.37,-13.57,-0.44,0.15,0.29,15.46,4.2,0,0,4.19,0,1,1,11,27.9333411,-80.7095302,15,2025,4,12,19,30,39,2,5,154,73,1.5,0.8,1.2,0,0,0,0,39,0,0,0,0,0,25,26,0,30,0,0,31,0,19,26,0,38,0,38,29,0,0,0,0,0,0,0
6,11065,1,Zephyr2,0.76,3,   boost,190.74,101129,16.33,36.12,134.42,38.3,0,0,4.18,211.41,8.54,-5.68,-56.06,-3.64,-11.13,-0.44,0.15,0.29,15.58,4.2,0,0,4.19,0,1,1,11,27.9333411,-80.7095302,15,2025,4,12,19,30,39,2,5,154,73,1.5,0.8,1.2,0,0,0,0,39,0,0,0,0,0,25,26,0,30,0,0,31,0,19,26,0,38,0,38,29,0,0,0,0,0,0,0
6,11065,1,Zephyr2,0.77,3,   boost,192.7,101127,16.5,36.29,136.26,38.3,0,0,4.18,211.02,9.58,-5.27,-61.74,-3.7,-9.85,-0.44,0.15,0.29,15.68,4.2,0,0,4.19,0,1,1,11,27.9333411,-80.7095302,15,2025,4,12,19,30,39,2,5,154,73,1.5,0.8,1.2,0,0,0,0,39,0,0,0,0,0,25,26,0,30,0,0,31,0,19,26,0,38,0,38,29,0,0,0,0,0,0,0
6,11065,1,Zephyr2,0.78,3,   boost,190.25,101127,16.5,36.29,138.1,38.3,0,0,4.18,211.86,10.54,-4.24,-65.83,-2.79,-8.38,-0.44,0.15,0.29,15.77,4.2,0,0,4.19,0,1,1,11,27.9333411,-80.7095302,15,2025,4,12,19,30,39,2,5,154,73,1.5,0.8,1.2,0,0,0,0,39,0,0,0,0,0,25,26,0,30,0,0,31,0,19,26,0,38,0,38,29,0,0,0,0,0,0,0
6,11065,1,Zephyr2,0.79,3,   boost,191.23,101109,18,37.79,139.93,38.3,0,0,4.18,211.78,9.94,-4.91,-69.25,-1.81,-6.55,-0.44,0.15,0.3,15.83,4.2,0,0,4.19,0,1,1,11,27.9333411,-80.7095302,15,2025,4,12,19,30,39,2,5,154,73,1.5,0.8,1.2,0,0,0,0,39,0,0,0,0,0,25,26,0,30,0,0,31,0,19,26,0,38,0,38,29,0,0,0,0,0,0,0
6,11065,1,Zephyr2,0.8,3,   boost,191.72,101109,18,37.79,141.77,38.3,0,0,4.18,211.85,8.82,-6.37,-73.46,-2.18,-4.84,-0.44,0.15,0.31,15.89,4.2,0,0,4.19,0,1,1,11,27.9333411,-80.7095302,15,2025,4,12,19,30,39,2,5,154,73,1.5,0.8,1.2,0,0,0,0,39,0,0,0,0,0,25,26,0,30,0,0,31,0,19,26,0,38,0,38,29,0,0,0,0,0,0,0
6,11065,1,Zephyr2,0.81,3,   boost,191.23,101080,20.41,40.21,143.61,38.3,0,0,4.18,211.82,9.32,-6.71,-75.84,-1.57,-2.59,-0.44,0.15,0.31,15.92,4.2,0,0,4.19,0,1,1,11,27.9333411,-80.7095302,15,2025,4,12,19,30,39,2,5,154,73,1.5,0.8,1.2,0,0,0,0,39,0,0,0,0,0,25,26,0,30,0,0,31,0,19,26,0,38,0,38,29,0,0,0,0,0,0,0
6,11065,1,Zephyr2,0.82,3,   boost,191.23,101080,20.41,40.21,145.45,38.3,0,0,4.18,212.48,9.22,-6.12,-79.13,-1.08,-1.06,-0.44,0.16,0.31,15.93,4.2,0,0,4.19,0,1,1,11,27.9333411,-80.7095302,15,2025,4,12,19,30,39,2,5,154,73,1.5,0.8,1.2,0,0,0,0,39,0,0,0,0,0,25,26,0,30,0,0,31,0,19,26,0,38,0,38,29,0,0,0,0,0,0,0
6,11065,1,Zephyr2,0.83,3,   boost,194.66,101050,22.92,42.71,147.29,38.3,0,0,4.18,212.38,10.35,-7.44,-83.04,0.2,1.38,-0.44,0.16,0.32,15.92,4.2,0,0,4.19,0,1,1,11,27.9333411,-80.7095302,15,2025,4,12,19,30,39,2,5,154,73,1.5,0.8,1.2,0,0,0,0,39,0,0,0,0,0,25,26,0,30,0,0,31,0,19,26,0,38,0,38,29,0,0,0,0,0,0,0
6,11065,1,Zephyr2,0.84,3,   boost,190.25,101050,22.92,42.71,149.14,38.3,0,0,4.18,212.17,8.74,-7.05,-87.25,0.81,3.33,-0.44,0.16,0.32,15.89,4.2,0,0,4.19,0,1,1,11,27.9333411,-80.7095302,15,2025,4,12,19,30,39,2,5,154,73,1.5,0.8,1.2,0,0,0,0,39,0,0,0,0,0,25,26,0,30,0,0,31,0,19,26,0,38,0,38,29,0,0,0,0,0,0,0
6,11065,1,Zephyr2,0.85,3,   boost,192.7,101042,23.58,43.38,150.98,38.3,0,0,4.18,212.26,9.84,-6.93,-88.11,1.97,4.74,-0.44,0.16,0.33,15.84,4.2,0,0,4.19,0,1,1,11,27.9333411,-80.7095302,15,2025,4,12,19,30,39,2,5,154,73,1.5,0.8,1.2,0,0,0,0,39,0,0,0,0,0,25,26,0,30,0,0,31,0,19,26,0,38,0,38,29,0,0,0,0,0,0,0
6,11065,1,Zephyr2,0.86,3,   boost,190.74,101042,23.58,43.38,152.82,38.3,0,0,4.18,211.99,10.1,-5.42,-90.24,2.16,5.84,-0.44,0.16,0.33,15.78,4.2,0,0,4.19,0,1,1,11,27.9333411,-80.7095302,15,2025,4,12,19,30,39,2,5,154,73,1.5,0.8,1.2,0,0,0,0,39,0,0,0,0,0,25,26,0,30,0,0,31,0,19,26,0,38,0,38,29,0,0,0,0,0,0,0
6,11065,1,Zephyr2,0.87,3,   boost,192.21,101018,25.59,45.38,154.67,38.3,0,0,4.18,211.94,8.58,-8.1,-92.93,2.64,7.61,-0.44,0.16,0.34,15.7,4.2,0,0,4.19,0,1,1,11,27.9333411,-80.7095302,15,2025,4,12,19,30,39,2,5,154,73,1.5,0.8,1.2,0,0,0,0,39,0,0,0,0,0,25,26,0,30,0,0,31,0,19,26,0,38,0,38,29,0,0,0,0,0,0,0
6,11065,1,Zephyr2,0.88,3,   boost,192.21,101018,25.59,45.38,156.52,38.3,0,0,4.18,212.36,8.51,-6.87,-93.97,3.26,9.38,-0.44,0.16,0.34,15.6,4.2,0,0,4.19,0,1,1,11,27.9333411,-80.7095302,15,2025,4,12,19,30,39,2,5,154,73,1.5,0.8,1.2,0,0,0,0,39,0,0,0,0,0,25,26,0,30,0,0,31,0,19,26,0,38,0,38,29,0,0,0,0,0,0,0
6,11065,1,Zephyr2,0.89,3,   boost,193.68,100983,28.51,48.3,158.37,38.3,0,0,4.18,212.57,7.55,-7.11,-93.72,4.96,11.51,-0.44,0.16,0.34,15.48,4.2,0,0,4.19,0,1,1,11,27.9333411,-80.7095302,15,2025,4,12,19,30,39,2,5,154,73,1.5,0.8,1.2,0,0,0,0,39,0,0,0,0,0,25,26,0,30,0,0,31,0,19,26,0,38,0,38,29,0,0,0,0,0,0,0
6,11065,1,Zephyr2,0.9,3,   boost,192.7,100983,28.51,48.3,160.23,38.3,0,0,4.18,212.91,8.46,-7.62,-94.64,6.43,12.73,-0.43,0.16,0.35,15.34,4.2,0,0,4.19,0,1,1,11,27.9333411,-80.7095302,15,2025,4,12,19,30,39,2,5,154,73,1.5,0.8,1.2,0,0,0,0,39,0,0,0,0,0,25,26,0,30,0,0,31,0,19,26,0,38,0,38,29,0,0,0,0,0,0,0
6,11065,1,Zephyr2,0.91,3,   boost,193.68,100967,29.84,49.64,162.08,38.3,0,0,4.18,212.65,7.36,-7.06,-94.7,6.25,13.89,-0.43,0.16,0.36,15.19,4.2,0,0,4.19,0,1,1,11,27.9333411,-80.7095302,15,2025,4,12,19,30,39,2,5,154,73,1.5,0.8,1.2,0,0,0,0,39,0,0,0,0,0,25,26,0,30,0,0,31,0,19,26,0,38,0,38,29,0,0,0,0,0,0,0
6,11065,1,Zephyr2,0.92,3,   boost,194.17,100967,29.84,49.64,163.94,38.3,0,0,4.18,214.34,7.06,-8.84,-93.17,6.8,14.26,-0.43,0.16,0.36,15.04,4.2,0,0,4.19,0,1,1,11,27.9333411,-80.7095302,15,2025,4,12,19,30,39,2,5,154,73,1.5,0.8,1.2,0,0,0,0,39,0,0,0,0,0,25,26,0,30,0,0,31,0,19,26,0,38,0,38,29,0,0,0,0,0,0,0
6,11065,1,Zephyr2,0.93,3,   boost,191.72,100932,32.77,52.56,165.79,38.3,0,0,4.18,214.41,5.37,-7.06,-91.77,7.16,14.75,-0.43,0.16,0.36,14.88,4.2,0,0,4.19,0,1,1,11,27.9333411,-80.7095302,15,2025,4,12,19,30,39,2,5,154,73,1.5,0.8,1.2,0,0,0,0,39,0,0,0,0,0,25,26,0,30,0,0,31,0,19,26,0,38,0,38,29,0,0,0,0,0,0,0
6,11065,1,Zephyr2,0.94,3,   boost,187.31,100932,32.77,52.56,167.64,38.3,0,0,4.18,212.39,4.55,-7.02,-89.27,8.5,15.72,-0.43,0.16,0.37,14.71,4.2,0,0,4.19,0,1,1,11,27.9333411,-80.7095302,15,2025,4,12,19,30,39,2,5,154,73,1.5,0.8,1.2,0,0,0,0,39,0,0,0,0,0,25,26,0,30,0,0,31,0,19,26,0,38,0,38,29,0,0,0,0,0,0,0
6,11065,1,Zephyr2,0.95,3,   boost,189.76,100908,34.77,54.56,169.48,38.3,0,0,4.18,213.09,3.15,-6.72,-85.24,9.97,17.01,-0.43,0.16,0.37,14.52,4.2,0,0,4.19,0,1,1,11,27.9333411,-80.7095302,15,2025,4,12,19,30,39,2,5,154,73,1.5,0.8,1.2,0,0,0,0,39,0,0,0,0,0,25,26,0,30,0,0,31,0,19,26,0,38,0,38,29,0,0,0,0,0,0,0
6,11065,1,Zephyr2,0.96,3,   boost,193.68,100908,34.77,54.56,171.33,38.3,0,0,4.18,212.99,2.24,-4.91,-76.57,10.21,17.25,-0.43,0.16,0.37,14.33,4.2,0,0,4.19,0,1,1,11,27.9333411,-80.7095302,15,2025,4,12,19,30,39,2,5,154,73,1.5,0.8,1.2,0,0,0,0,39,0,0,0,0,0,25,26,0,30,0,0,31,0,19,26,0,38,0,38,29,0,0,0,0,0,0,0
6,11065,1,Zephyr2,0.97,3,   boost,191.72,100890,36.27,56.07,173.18,38.2,0,0,4.18,212.18,2.59,-6.29,-66.93,11.13,17.43,-0.43,0.16,0.38,14.12,4.2,0,0,4.19,0,1,1,11,27.9333411,-80.7095302,15,2025,4,12,19,30,39,2,5,154,73,1.5,0.8,1.2,0,0,0,0,39,0,0,0,0,0,25,26,0,30,0,0,31,0,19,26,0,38,0,38,29,0,0,0,0,0,0,0
6,11065,1,Zephyr2,0.98,3,   boost,190.74,100890,36.27,56.07,175.03,38.2,0,0,4.18,211.9,1.21,-4.73,-57.77,11.13,17.49,-0.43,0.16,0.38,13.92,4.18,0,0,4.2,0,1,1,11,27.9333411,-80.7095302,15,2025,4,12,19,30,39,2,5,154,73,1.5,0.8,1.2,0,0,0,0,39,0,0,0,0,0,25,26,0,30,0,0,31,0,19,26,0,38,0,38,29,0,0,0,0,0,0,0
6,11065,1,Zephyr2,0.98,3,   boost,190.74,100890,36.27,56.07,175.03,38.2,0,0,4.18,211.9,1.21,-4.73,-57.77,11.13,17.49,-0.43,0.16,0.38,13.92,4.18,0,0,4.2,0,1,1,11,27.9333411,-80.7095302,15,2025,4,12,19,30,39,2,5,154,73,1.5,0.8,1.2,0,0,0,0,39,0,0,0,0,0,25,26,0,30,0,0,31,0,19,26,0,38,0,38,29,0,0,0,0,0,0,0
6,11065,1,Zephyr2,0.99,3,   boost,191.23,100857,39.03,58.82,176.89,38.3,0,0,4.18,211.53,0.27,-5.35,-47.82,10.95,16.76,-0.43,0.16,0.38,13.73,4.18,0,0,4.2,0,1,1,11,27.9333411,-80.7095302,15,2025,4,12,19,30,39,2,5,154,73,1.5,0.8,1.2,0,0,0,0,39,0,0,0,0,0,25,26,0,30,0,0,31,0,19,26,0,38,0,38,29,0,0,0,0,0,0,0
6,11065,1,Zephyr2,1,3,   boost,189.76,100857,39.03,58.82,178.75,38.3,0,0,4.18,211.54,-0.4,-4.02,-35.19,11.25,17.31,-0.43,0.16,0.38,13.53,4.18,0,0,4.2,0,1,1,11,27.9333411,-80.7095302,15,2025,4,12,19,30,39,2,5,154,73,1.5,0.8,1.2,0,0,0,0,39,0,0,0,0,0,25,26,0,30,0,0,31,0,19,26,0,38,0,38,29,0,0,0,0,0,0,0
6,11065,1,Zephyr2,1.01,3,   boost,193.68,100850,39.62,59.41,180.61,38.3,0,0,4.18,211.81,-2.05,-3.37,-25.24,11.49,16.95,-0.43,0.15,0.38,13.33,4.18,0,0,4.2,0,1,1,11,27.9333411,-80.7095302,15,2025,4,12,19,30,39,2,5,154,73,1.5,0.8,1.2,0,0,0,0,39,0,0,0,0,0,25,26,0,30,0,0,31,0,19,26,0,38,0,38,29,0,0,0,0,0,0,0
6,11065,1,Zephyr2,1.02,3,   boost,193.19,100850,39.62,59.41,182.47,38.3,0,0,4.18,212.36,-2.38,-3.53,-14.62,10.82,16.27,-0.43,0.15,0.38,13.14,4.18,0,0,4.2,0,1,1,11,27.9333411,-80.7095302,15,2025,4,12,19,30,39,2,5,154,73,1.5,0.8,1.2,0,0,0,0,39,0,0,0,0,0,25,26,0,30,0,0,31,0,19,26,0,38,0,38,29,0,0,0,0,0,0,0
6,11065,1,Zephyr2,1.03,3,   boost,189.27,100835,40.87,60.66,184.34,38.3,0,0,4.18,211.27,-3.25,-3.21,-6.69,11.43,15.79,-0.43,0.15,0.38,12.95,4.18,0,0,4.2,0,1,1,11,27.9333411,-80.7095302,15,2025,4,12,19,30,39,2,5,154,73,1.5,0.8,1.2,0,0,0,0,39,0,0,0,0,0,25,26,0,30,0,0,31,0,19,26,0,38,0,38,29,0,0,0,0,0,0,0
6,11065,1,Zephyr2,1.04,3,   boost,192.7,100835,40.87,60.66,186.21,38.3,0,0,4.18,210.83,-4.33,-2.49,0.46,11.25,14.81,-0.42,0.15,0.38,12.77,4.18,0,0,4.2,0,1,1,11,27.9333411,-80.7095302,15,2025,4,12,19,30,39,2,5,154,73,1.5,0.8,1.2,0,0,0,0,39,0,0,0,0,0,25,26,0,30,0,0,31,0,19,26,0,38,0,38,29,0,0,0,0,0,0,0
6,11065,1,Zephyr2,1.05,3,   boost,194.17,100808,43.13,62.92,188.08,38.3,0,0,4.18,211.43,-4.11,-2,7.11,10.95,13.53,-0.42,0.15,0.38,12.6,4.18,0,0,4.2,0,1,1,11,27.9333411,-80.7095302,15,2025,4,12,19,30,39,2,5,154,73,1.5,0.8,1.2,0,0,0,0,39,0,0,0,0,0,25,26,0,30,0,0,31,0,19,26,0,38,0,38,29,0,0,0,0,0,0,0
6,11065,1,Zephyr2,1.06,3,   boost,190.74,100808,43.13,62.92,189.94,38.3,0,0,4.18,210.47,-5.67,-1.42,13.27,10.88,13.41,-0.42,0.15,0.38,12.43,4.18,0,0,4.2,0,1,1,11,27.9333411,-80.7095302,15,2025,4,12,19,30,39,2,5,154,73,1.5,0.8,1.2,0,0,0,0,39,0,0,0,0,0,25,26,0,30,0,0,31,0,19,26,0,38,0,38,29,0,0,0,0,0,0,0
6,11065,1,Zephyr2,1.07,3,   boost,189.27,100777,45.72,65.51,191.81,38.2,0,0,4.18,211.27,-5.62,-0.23,19.44,9.97,12.25,-0.42,0.15,0.38,12.28,4.18,0,0,4.2,0,1,1,11,27.9333411,-80.7095302,15,2025,4,12,19,30,39,2,5,154,73,1.5,0.8,1.2,0,0,0,0,39,0,0,0,0,0,25,26,0,30,0,0,31,0,19,26,0,38,0,38,29,0,0,0,0,0,0,0
6,11065,1,Zephyr2,1.08,3,   boost,189.76,100777,45.72,65.51,193.67,38.2,0,0,4.18,210.86,-6.71,-0.37,29.81,9.91,11.21,-0.42,0.15,0.37,12.13,4.18,0,0,4.2,0,1,1,11,27.9333411,-80.7095302,15,2025,4,12,19,30,39,2,5,154,73,1.5,0.8,1.2,0,0,0,0,39,0,0,0,0,0,25,26,0,30,0,0,31,0,19,26,0,38,0,38,29,0,0,0,0,0,0,0
6,11065,1,Zephyr2,1.09,3,   boost,191.72,100774,45.97,65.76,195.53,38.3,0,0,4.18,210.72,-6.95,0.48,35.8,9.3,10.29,-0.42,0.15,0.37,11.99,4.18,0,0,4.2,0,1,1,11,27.9333411,-80.7095302,15,2025,4,12,19,30,39,2,5,154,73,1.5,0.8,1.2,0,0,0,0,39,0,0,0,0,0,25,26,0,30,0,0,31,0,19,26,0,38,0,38,29,0,0,0,0,0,0,0
6,11065,1,Zephyr2,1.1,3,   boost,190.74,100774,45.97,65.76,197.39,38.3,0,0,4.18,210.52,-7.59,0.74,45.44,9.36,9.5,-0.42,0.15,0.36,11.86,4.18,0,0,4.2,0,1,1,11,27.9333411,-80.7095302,15,2025,4,12,19,30,39,2,5,154,73,1.5,0.8,1.2,0,0,0,0,39,0,0,0,0,0,25,26,0,30,0,0,31,0,19,26,0,38,0,38,29,0,0,0,0,0,0,0
6,11065,1,Zephyr2,1.11,3,   boost,190.25,100747,48.23,68.02,199.25,38.3,0,0,4.18,211.51,-8.66,0.75,54.78,8.57,8.4,-0.42,0.15,0.36,11.74,4.18,0,0,4.2,0,1,1,11,27.9333411,-80.7095302,15,2025,4,12,19,30,39,2,5,154,73,1.5,0.8,1.2,0,0,0,0,39,0,0,0,0,0,25,26,0,30,0,0,31,0,19,26,0,38,0,38,29,0,0,0,0,0,0,0
6,11065,1,Zephyr2,1.12,3,   boost,187.8,100747,48.23,68.02,201.1,38.3,0,0,4.18,209.86,-7.82,1.78,62.47,7.95,7.18,-0.42,0.15,0.36,11.63,4.18,0,0,4.2,0,1,1,11,27.9333411,-80.7095302,15,2025,4,12,19,30,39,2,5,154,73,1.5,0.8,1.2,0,0,0,0,39,0,0,0,0,0,25,26,0,30,0,0,31,0,19,26,0,38,0,38,29,0,0,0,0,0,0,0
6,11065,1,Zephyr2,1.13,3,   boost,191.23,100717,50.73,70.53,202.95,38.3,0,0,4.18,209.19,-9.29,1.29,74.37,8.75,6.51,-0.42,0.15,0.35,11.52,4.18,0,0,4.2,0,1,1,11,27.9333411,-80.7095302,15,2025,4,12,19,30,39,2,5,154,73,1.5,0.8,1.2,0,0,0,0,39,0,0,0,0,0,25,26,0,30,0,0,31,0,19,26,0,38,0,38,29,0,0,0,0,0,0,0
6,11065,1,Zephyr2,1.14,3,   boost,185.84,100717,50.73,70.53,204.8,38.3,0,0,4.18,208.91,-9.42,2.36,83.4,7.53,4.62,-0.42,0.14,0.35,11.44,4.18,0,0,4.2,0,1,1,11,27.9333411,-80.7095302,15,2025,4,12,19,30,39,2,5,154,73,1.5,0.8,1.2,0,0,0,0,39,0,0,0,0,0,25,26,0,30,0,0,31,0,19,26,0,38,0,38,29,0,0,0,0,0,0,0
6,11065,1,Zephyr2,1.15,3,   boost,189.76,100691,52.91,72.7,206.64,38.3,0,0,4.18,209.13,-9.58,2.23,93.23,6.43,3.09,-0.42,0.14,0.34,11.37,4.18,0,0,4.2,0,1,1,11,27.9333411,-80.7095302,15,2025,4,12,19,30,39,2,5,154,73,1.5,0.8,1.2,0,0,0,0,39,0,0,0,0,0,25,26,0,30,0,0,31,0,19,26,0,38,0,38,29,0,0,0,0,0,0,0
6,11065,1,Zephyr2,1.16,3,   boost,187.31,100691,52.91,72.7,208.48,38.3,0,0,4.18,207.73,-10.37,2.22,102.81,5.51,2.24,-0.42,0.14,0.34,11.31,4.18,0,0,4.2,0,1,1,11,27.9333411,-80.7095302,15,2025,4,12,19,30,39,2,5,154,73,1.5,0.8,1.2,0,0,0,0,39,0,0,0,0,0,25,26,0,30,0,0,31,0,19,26,0,38,0,38,29,0,0,0,0,0,0,0
6,11065,1,Zephyr2,1.17,3,   boost,185.35,100671,54.58,74.38,210.32,38.3,0,0,4.18,207.46,-10.03,2.78,113.31,4.29,0.16,-0.42,0.14,0.33,11.28,4.18,0,0,4.2,0,1,1,11,27.9333411,-80.7095302,15,2025,4,12,19,30,39,2,5,154,73,1.5,0.8,1.2,0,0,0,0,39,0,0,0,0,0,25,26,0,30,0,0,31,0,19,26,0,38,0,38,29,0,0,0,0,0,0,0
6,11065,1,Zephyr2,1.18,3,   boost,191.23,100671,54.58,74.38,212.16,38.3,0,0,4.18,207.51,-10.79,1.87,121.43,4.41,-0.39,-0.42,0.14,0.32,11.26,4.18,0,0,4.2,0,1,1,11,27.9333411,-80.7095302,15,2025,4,12,19,30,39,2,5,154,73,1.5,0.8,1.2,0,0,0,0,39,0,0,0,0,0,25,26,0,30,0,0,31,0,19,26,0,38,0,38,29,0,0,0,0,0,0,0
6,11065,1,Zephyr2,1.19,3,   boost,184.86,100647,56.59,76.38,213.99,38.3,0,0,4.18,207.24,-9.44,3.4,130.95,3.68,-2.22,-0.42,0.14,0.32,11.25,4.18,0,0,4.2,0,1,1,11,27.9333411,-80.7095302,15,2025,4,12,19,30,39,2,5,154,73,1.5,0.8,1.2,0,0,0,0,39,0,0,0,0,0,25,26,0,30,0,0,31,0,19,26,0,38,0,38,29,0,0,0,0,0,0,0
6,11065,1,Zephyr2,1.2,3,   boost,185.84,100647,56.59,76.38,215.82,38.3,0,0,4.18,206.99,-8.92,1.71,140.78,0.69,-3.38,-0.42,0.14,0.31,11.27,4.18,0,0,4.2,0,1,1,11,27.9333411,-80.7095302,15,2025,4,12,19,30,39,2,5,154,73,1.5,0.8,1.2,0,0,0,0,39,0,0,0,0,0,25,26,0,30,0,0,31,0,19,26,0,38,0,38,29,0,0,0,0,0,0,0
6,11065,1,Zephyr2,1.21,3,   boost,188.29,100621,58.77,78.56,217.64,38.3,0,0,4.18,207.38,-10.62,3.05,151.15,1.36,-4.42,-0.42,0.13,0.3,11.3,4.18,0,0,4.2,0,1,1,11,27.9333411,-80.7095302,15,2025,4,12,19,30,39,2,5,154,73,1.5,0.8,1.2,0,0,0,0,39,0,0,0,0,0,25,26,0,30,0,0,31,0,19,26,0,38,0,38,29,0,0,0,0,0,0,0
6,11065,1,Zephyr2,1.22,3,   boost,184.37,100621,58.77,78.56,219.47,38.3,0,0,4.18,206.02,-7.23,3.2,157.99,0.94,-6.61,-0.42,0.13,0.3,11.34,4.18,0,0,4.2,0,1,1,11,27.9333411,-80.7095302,15,2025,4,12,19,30,39,2,5,154,73,1.5,0.8,1.2,0,0,0,0,39,0,0,0,0,0,25,26,0,30,0,0,31,0,19,26,0,38,0,38,29,0,0,0,0,0,0,0
6,11065,1,Zephyr2,1.23,3,   boost,186.33,100609,59.77,79.57,221.28,38.3,0,0,4.18,204.88,-10.14,1.24,167.33,1.73,-6.98,-0.42,0.13,0.29,11.39,4.18,0,0,4.2,0,1,1,11,27.9333411,-80.7095302,15,2025,4,12,19,30,39,2,5,154,73,1.5,0.8,1.2,0,0,0,0,39,0,0,0,0,0,25,26,0,30,0,0,31,0,19,26,0,38,0,38,29,0,0,0,0,0,0,0
6,11065,1,Zephyr2,1.24,3,   boost,183.87,100609,59.77,79.57,223.08,38.3,0,0,4.18,203.71,-8.08,3.69,174.16,-0.65,-8.51,-0.43,0.13,0.28,11.47,4.18,0,0,4.2,0,1,1,11,27.9333411,-80.7095302,15,2025,4,12,19,30,39,2,5,154,73,1.5,0.8,1.2,0,0,0,0,39,0,0,0,0,0,25,26,0,30,0,0,31,0,19,26,0,38,0,38,29,0,0,0,0,0,0,0
6,11065,1,Zephyr2,1.25,3,   boost,182.89,100572,62.87,82.66,224.88,38.2,0,0,4.18,203.32,-7.87,2.35,181.12,0.02,-8.87,-0.43,0.12,0.27,11.54,4.18,0,0,4.2,0,1,1,11,27.9333411,-80.7095302,15,2025,4,12,19,30,39,2,5,154,73,1.5,0.8,1.2,0,0,0,0,39,0,0,0,0,0,25,26,0,30,0,0,31,0,19,26,0,38,0,38,29,0,0,0,0,0,0,0
6,11065,1,Zephyr2,1.26,3,   boost,181.42,100572,62.87,82.66,226.66,38.2,0,0,4.18,202.89,-7.81,3.63,187.71,-0.53,-9.12,-0.43,0.12,0.26,11.62,4.18,0,0,4.2,0,1,1,11,27.9333411,-80.7095302,15,2025,4,12,19,30,39,2,5,154,73,1.5,0.8,1.2,0,0,0,0,39,0,0,0,0,0,25,26,0,30,0,0,31,0,19,26,0,38,0,38,29,0,0,0,0,0,0,0
6,11065,1,Zephyr2,1.26,3,   boost,181.42,100572,62.87,82.66,226.66,38.2,0,0,4.18,202.89,-7.81,3.63,187.71,-0.53,-9.12,-0.43,0.12,0.26,11.62,4.18,0,0,4.2,0,1,1,11,27.9333411,-80.7095302,15,2025,4,12,19,30,39,2,5,154,73,1.5,0.8,1.2,0,0,0,0,39,0,0,0,0,0,25,26,0,30,0,0,31,0,19,26,0,38,0,38,29,0,0,0,0,0,0,0
6,11065,1,Zephyr2,1.26,3,   boost,181.42,100572,62.87,82.66,226.66,38.2,0,0,4.18,202.89,-7.81,3.63,187.71,-0.53,-9.12,-0.43,0.12,0.26,11.62,4.18,0,0,4.2,0,1,1,11,27.9333411,-80.7095302,15,2025,4,12,19,30,39,2,5,154,73,1.5,0.8,1.2,0,0,0,0,39,0,0,0,0,0,25,26,0,30,0,0,31,0,19,26,0,38,0,38,29,0,0,0,0,0,0,0
6,11065,1,Zephyr2,1.27,3,   boost,177.5,100552,64.55,84.34,228.45,38.3,0,0,4.18,202.32,-6.1,3.02,194.43,-1.81,-10.28,-0.43,0.11,0.25,11.72,4.18,0,0,4.2,0,1,1,10,27.933167,-80.7097543,49,2025,4,12,19,30,40,30,49,226,53,1.6,0.8,1.3,0,0,0,0,40,0,0,0,0,0,21,21,0,30,0,0,23,0,0,22,0,40,0,37,22,0,0,0,0,0,0,0
6,11065,1,Zephyr2,1.28,3,   boost,183.87,100552,64.55,84.34,230.23,38.3,0,0,4.18,202.46,-5.95,2.06,200.96,0.69,-10.95,-0.43,0.11,0.24,11.82,4.18,0,0,4.2,0,1,1,10,27.933167,-80.7097543,49,2025,4,12,19,30,40,30,49,226,53,1.6,0.8,1.3,0,0,0,0,40,0,0,0,0,0,21,21,0,30,0,0,23,0,0,22,0,40,0,37,22,0,0,0,0,0,0,0
6,11065,1,Zephyr2,1.29,3,   boost,187.8,100538,65.72,85.51,232,38.3,0,0,4.18,202.3,-4.38,1.58,203.52,-0.41,-11.74,-0.43,0.11,0.23,11.93,4.18,0,0,4.2,0,1,1,10,27.933167,-80.7097543,49,2025,4,12,19,30,40,30,49,226,53,1.6,0.8,1.3,0,0,0,0,40,0,0,0,0,0,21,21,0,30,0,0,23,0,0,22,0,40,0,37,22,0,0,0,0,0,0,0
6,11065,1,Zephyr2,1.3,3,   boost,178.48,100538,65.72,85.51,233.78,38.3,0,0,4.18,203.37,-4.43,0.3,203.76,-0.35,-11.07,-0.43,0.1,0.23,12.04,4.2,0,0,4.18,0,1,1,10,27.933167,-80.7097543,49,2025,4,12,19,30,40,30,49,226,53,1.6,0.8,1.3,0,0,0,0,40,0,0,0,0,0,21,21,0,30,0,0,23,0,0,22,0,40,0,37,22,0,0,0,0,0,0,0
6,11065,1,Zephyr2,1.3,3,   boost,178.48,100538,65.72,85.51,233.78,38.3,0,0,4.18,203.37,-4.43,0.3,203.76,-0.35,-11.07,-0.43,0.1,0.23,12.04,4.2,0,0,4.18,0,1,1,10,27.933167,-80.7097543,49,2025,4,12,19,30,40,30,49,226,53,1.6,0.8,1.3,0,0,0,0,40,0,0,0,0,0,21,21,0,30,0,0,23,0,0,22,0,40,0,37,22,0,0,0,0,0,0,0
6,11065,1,Zephyr2,1.31,3,   boost,179.46,100509,68.15,87.94,235.55,38.3,0,0,4.18,201.23,-2.69,2.39,204.98,-0.96,-10.58,-0.43,0.1,0.22,12.14,4.2,0,0,4.18,0,1,1,10,27.933167,-80.7097543,49,2025,4,12,19,30,40,30,49,226,53,1.6,0.8,1.3,0,0,0,0,40,0,0,0,0,0,21,21,0,30,0,0,23,0,0,22,0,40,0,37,22,0,0,0,0,0,0,0
6,11065,1,Zephyr2,1.32,3,   boost,178.97,100509,68.15,87.94,237.31,38.3,0,0,4.18,200.6,-3.67,1.12,203.15,-2.06,-11.13,-0.43,0.09,0.21,12.25,4.2,0,0,4.18,0,1,1,10,27.933167,-80.7097543,49,2025,4,12,19,30,40,30,49,226,53,1.6,0.8,1.3,0,0,0,0,40,0,0,0,0,0,21,21,0,30,0,0,23,0,0,22,0,40,0,37,22,0,0,0,0,0,0,0
6,11065,1,Zephyr2,1.33,3,   boost,183.38,100496,69.24,89.03,239.07,38.3,0,0,4.18,198.22,-1.68,1.82,207.61,-3.4,-11.62,-0.43,0.09,0.21,12.37,4.2,0,0,4.18,0,1,1,10,27.933167,-80.7097543,49,2025,4,12,19,30,40,30,49,226,53,1.6,0.8,1.3,0,0,0,0,40,0,0,0,0,0,21,21,0,30,0,0,23,0,0,22,0,40,0,37,22,0,0,0,0,0,0,0
6,11065,1,Zephyr2,1.34,3,   boost,177.01,100496,69.24,89.03,240.82,38.3,0,0,4.18,197.48,-3.84,2.35,206.69,-2.18,-11.62,-0.43,0.08,0.19,12.49,4.2,0,0,4.18,0,1,1,10,27.933167,-80.7097543,49,2025,4,12,19,30,40,30,49,226,53,1.6,0.8,1.3,0,0,0,0,40,0,0,0,0,0,21,21,0,30,0,0,23,0,0,22,0,40,0,37,22,0,0,0,0,0,0,0
6,11065,1,Zephyr2,1.35,3,   boost,182.4,100453,72.84,92.63,242.57,38.3,0,0,4.18,196.65,-1.98,1.67,207.12,-2.91,-11.31,-0.43,0.07,0.19,12.61,4.2,0,0,4.18,0,1,1,10,27.933167,-80.7097543,49,2025,4,12,19,30,40,30,49,226,53,1.6,0.8,1.3,0,0,0,0,40,0,0,0,0,0,21,21,0,30,0,0,23,0,0,22,0,40,0,37,22,0,0,0,0,0,0,0
6,11065,1,Zephyr2,1.36,3,   boost,176.03,100453,72.84,92.63,244.3,38.3,0,0,4.18,196.41,-1.46,2.55,210.91,0.14,-9.79,-0.43,0.06,0.18,12.71,4.2,0,0,4.18,0,1,1,10,27.933167,-80.7097543,49,2025,4,12,19,30,40,30,49,226,53,1.6,0.8,1.3,0,0,0,0,40,0,0,0,0,0,21,21,0,30,0,0,23,0,0,22,0,40,0,37,22,0,0,0,0,0,0,0
6,11065,1,Zephyr2,1.37,3,   boost,176.52,100431,74.69,94.48,246.03,38.3,0,0,4.18,197.38,-1.31,2.78,209.14,-2.97,-9.79,-0.43,0.06,0.18,12.81,4.2,0,0,4.18,0,1,1,10,27.933167,-80.7097543,49,2025,4,12,19,30,40,30,49,226,53,1.6,0.8,1.3,0,0,0,0,40,0,0,0,0,0,21,21,0,30,0,0,23,0,0,22,0,40,0,37,22,0,0,0,0,0,0,0
6,11065,1,Zephyr2,1.38,3,   boost,175.54,100431,74.69,94.48,247.73,38.3,0,0,4.18,195.59,1.06,2.86,213.65,-1.08,-9.12,-0.43,0.05,0.17,12.9,4.2,0,0,4.18,0,1,1,10,27.933167,-80.7097543,49,2025,4,12,19,30,40,30,49,226,53,1.6,0.8,1.3,0,0,0,0,40,0,0,0,0,0,21,21,0,30,0,0,23,0,0,22,0,40,0,37,22,0,0,0,0,0,0,0
6,11065,1,Zephyr2,1.39,3,   boost,171.13,100413,76.2,95.99,249.43,38.2,0,0,4.18,193.81,-0.29,2.61,215.97,-5.41,-8.93,-0.43,0.04,0.16,12.99,4.2,0,0,4.18,0,1,1,10,27.933167,-80.7097543,49,2025,4,12,19,30,40,30,49,226,53,1.6,0.8,1.3,0,0,0,0,40,0,0,0,0,0,21,21,0,30,0,0,23,0,0,22,0,40,0,37,22,0,0,0,0,0,0,0
6,11065,1,Zephyr2,1.4,3,   boost,173.58,100413,76.2,95.99,251.12,38.2,0,0,4.18,192.62,2.31,2.49,221.46,-2.36,-8.63,-0.43,0.03,0.15,13.07,4.2,0,0,4.18,0,1,1,10,27.933167,-80.7097543,49,2025,4,12,19,30,40,30,49,226,53,1.6,0.8,1.3,0,0,0,0,40,0,0,0,0,0,21,21,0,30,0,0,23,0,0,22,0,40,0,37,22,0,0,0,0,0,0,0
6,11065,1,Zephyr2,1.41,3,   boost,172.6,100395,77.7,97.5,252.8,38.3,0,0,4.18,191.48,1.42,2.44,222.62,-3.83,-7.83,-0.43,0.02,0.15,13.15,4.2,0,0,4.18,0,1,1,10,27.933167,-80.7097543,49,2025,4,12,19,30,40,30,49,226,53,1.6,0.8,1.3,0,0,0,0,40,0,0,0,0,0,21,21,0,30,0,0,23,0,0,22,0,40,0,37,22,0,0,0,0,0,0,0
6,11065,1,Zephyr2,1.42,3,   boost,170.15,100395,77.7,97.5,254.47,38.3,0,0,4.18,190.62,0.75,2.36,224.09,-1.75,-5.45,-0.43,0.02,0.14,13.2,4.2,0,0,4.18,0,1,1,10,27.933167,-80.7097543,49,2025,4,12,19,30,40,30,49,226,53,1.6,0.8,1.3,0,0,0,0,40,0,0,0,0,0,21,21,0,30,0,0,23,0,0,22,0,40,0,37,22,0,0,0,0,0,0,0
6,11065,1,Zephyr2,1.43,3,   boost,173.58,100355,81.06,100.85,256.14,38.3,0,0,4.18,189.91,3.07,2.53,231.47,-1.14,-5.64,-0.43,0,0.14,13.26,4.2,0,0,4.18,0,1,1,10,27.933167,-80.7097543,49,2025,4,12,19,30,40,30,49,226,53,1.6,0.8,1.3,0,0,0,0,40,0,0,0,0,0,21,21,0,30,0,0,23,0,0,22,0,40,0,37,22,0,0,0,0,0,0,0
6,11065,1,Zephyr2,1.44,3,   boost,173.58,100355,81.06,100.85,257.8,38.3,0,0,4.18,189.09,1.67,1.62,229.7,-4.98,-5.03,-0.43,0,0.14,13.3,4.2,0,0,4.18,0,1,1,10,27.933167,-80.7097543,49,2025,4,12,19,30,40,30,49,226,53,1.6,0.8,1.3,0,0,0,0,40,0,0,0,0,0,21,21,0,30,0,0,23,0,0,22,0,40,0,37,22,0,0,0,0,0,0,0
6,11065,1,Zephyr2,1.45,3,   boost,168.67,100334,82.82,102.61,259.45,38.3,0,0,4.18,187.94,1.93,3,233.61,-7.18,-4.11,-0.43,-0.01,0.13,13.33,4.2,0,0,4.18,0,1,1,10,27.933167,-80.7097543,49,2025,4,12,19,30,40,30,49,226,53,1.6,0.8,1.3,0,0,0,0,40,0,0,0,0,0,21,21,0,30,0,0,23,0,0,22,0,40,0,37,22,0,0,0,0,0,0,0
6,11065,1,Zephyr2,1.46,3,   boost,164.75,100334,82.82,102.61,261.08,38.3,0,0,4.18,186.57,1.59,1.36,233.85,-5.17,-3.56,-0.43,-0.02,0.13,13.35,4.2,0,0,4.18,0,1,1,10,27.933167,-80.7097543,49,2025,4,12,19,30,40,30,49,226,53,1.6,0.8,1.3,0,0,0,0,40,0,0,0,0,0,21,21,0,30,0,0,23,0,0,22,0,40,0,37,22,0,0,0,0,0,0,0
6,11065,1,Zephyr2,1.47,3,   boost,162.3,100310,84.84,104.63,262.7,38.2,0,0,4.18,186.36,1.91,2.55,235.69,-7.91,-3.14,-0.43,-0.03,0.13,13.36,4.2,0,0,4.18,0,1,1,10,27.933167,-80.7097543,49,2025,4,12,19,30,40,30,49,226,53,1.6,0.8,1.3,0,0,0,0,40,0,0,0,0,0,21,21,0,30,0,0,23,0,0,22,0,40,0,37,22,0,0,0,0,0,0,0
6,11065,1,Zephyr2,1.48,3,   boost,165.24,100310,84.84,104.63,264.31,38.2,0,0,4.18,186.02,1.71,1.89,238.25,-6.69,-2.1,-0.43,-0.05,0.12,13.36,4.2,0,0,4.18,0,1,1,10,27.933167,-80.7097543,49,2025,4,12,19,30,40,30,49,226,53,1.6,0.8,1.3,0,0,0,0,40,0,0,0,0,0,21,21,0,30,0,0,23,0,0,22,0,40,0,37,22,0,0,0,0,0,0,0
6,11065,1,Zephyr2,1.49,3,   boost,169.16,100274,87.86,107.65,265.93,38.3,0,0,4.18,185.48,0.12,1.53,242.89,-5.11,0.34,-0.43,-0.06,0.12,13.34,4.2,0,0,4.18,0,1,1,10,27.933167,-80.7097543,49,2025,4,12,19,30,40,30,49,226,53,1.6,0.8,1.3,0,0,0,0,40,0,0,0,0,0,21,21,0,30,0,0,23,0,0,22,0,40,0,37,22,0,0,0,0,0,0,0
6,11065,1,Zephyr2,1.5,3,   boost,165.24,100274,87.86,107.65,267.54,38.3,0,0,4.18,186.06,0.64,2.06,245.63,-6.21,-0.14,-0.43,-0.07,0.12,13.32,4.2,0,0,4.18,0,1,1,10,27.933167,-80.7097543,49,2025,4,12,19,30,40,30,49,226,53,1.6,0.8,1.3,0,0,0,0,40,0,0,0,0,0,21,21,0,30,0,0,23,0,0,22,0,40,0,37,22,0,0,0,0,0,0,0
6,11065,1,Zephyr2,1.51,3,   boost,168.18,100267,88.44,108.24,269.16,38.3,0,0,4.18,183.59,1.55,-0.1,250.46,-5.53,-0.21,-0.43,-0.08,0.12,13.3,4.2,0,0,4.18,0,1,1,10,27.933167,-80.7097543,49,2025,4,12,19,30,40,30,49,226,53,1.6,0.8,1.3,0,0,0,0,40,0,0,0,0,0,21,21,0,30,0,0,23,0,0,22,0,40,0,37,22,0,0,0,0,0,0,0
6,11065,1,Zephyr2,1.52,3,   boost,167.69,100267,88.44,108.24,270.76,38.3,0,0,4.18,183.06,-0.88,-0.45,243.74,-7.79,-0.14,-0.43,-0.09,0.12,13.26,4.2,0,0,4.18,0,1,1,10,27.933167,-80.7097543,49,2025,4,12,19,30,40,30,49,226,53,1.6,0.8,1.3,0,0,0,0,40,0,0,0,0,0,21,21,0,30,0,0,23,0,0,22,0,40,0,37,22,0,0,0,0,0,0,0
6,11065,1,Zephyr2,1.53,3,   boost,162.79,100243,90.46,110.25,272.36,38.3,0,0,4.18,181.76,-0.85,0.61,241.54,-5.53,0.89,-0.43,-0.1,0.12,13.23,4.2,0,0,4.18,0,1,1,10,27.933167,-80.7097543,49,2025,4,12,19,30,40,30,49,226,53,1.6,0.8,1.3,0,0,0,0,40,0,0,0,0,0,21,21,0,30,0,0,23,0,0,22,0,40,0,37,22,0,0,0,0,0,0,0
6,11065,1,Zephyr2,1.54,3,   boost,160.83,100243,90.46,110.25,273.94,38.3,0,0,4.18,181.19,-1.19,-1.38,244.84,-10.42,0.95,-0.43,-0.11,0.12,13.17,4.2,0,0,4.18,0,1,1,10,27.933167,-80.7097543,49,2025,4,12,19,30,40,30,49,226,53,1.6,0.8,1.3,0,0,0,0,40,0,0,0,0,0,21,21,0,30,0,0,23,0,0,22,0,40,0,37,22,0,0,0,0,0,0,0
6,11065,1,Zephyr2,1.55,3,   boost,157.4,100227,91.8,111.6,275.51,38.2,0,0,4.18,179.71,-2.52,-1.41,241.73,-5.53,1.93,-0.43,-0.11,0.12,13.12,4.2,0,0,4.18,0,1,1,10,27.933167,-80.7097543,49,2025,4,12,19,30,40,30,49,226,53,1.6,0.8,1.3,0,0,0,0,40,0,0,0,0,0,21,21,0,30,0,0,23,0,0,22,0,40,0,37,22,0,0,0,0,0,0,0
6,11065,1,Zephyr2,1.56,3,   boost,161.32,100227,91.8,111.6,277.07,38.2,0,0,4.18,178.19,0.04,0.4,243.31,-6.57,1.44,-0.43,-0.14,0.12,13.07,4.2,0,0,4.18,0,1,1,10,27.933167,-80.7097543,49,2025,4,12,19,30,40,30,49,226,53,1.6,0.8,1.3,0,0,0,0,40,0,0,0,0,0,21,21,0,30,0,0,23,0,0,22,0,40,0,37,22,0,0,0,0,0,0,0
6,11065,1,Zephyr2,1.57,3,   boost,161.32,100183,95.5,115.29,278.64,38.2,0,0,4.18,177.34,-0.89,-1.03,248.93,-7.85,1.02,-0.43,-0.15,0.13,13.02,4.2,0,0,4.18,0,1,1,10,27.933167,-80.7097543,49,2025,4,12,19,30,40,30,49,226,53,1.6,0.8,1.3,0,0,0,0,40,0,0,0,0,0,21,21,0,30,0,0,23,0,0,22,0,40,0,37,22,0,0,0,0,0,0,0
6,11065,1,Zephyr2,1.58,3,   boost,158.38,100183,95.5,115.29,280.19,38.2,0,0,4.18,176.62,-3.07,-1.29,244.78,-5.05,2.24,-0.43,-0.16,0.13,12.97,4.2,0,0,4.18,0,1,1,10,27.933167,-80.7097543,49,2025,4,12,19,30,40,30,49,226,53,1.6,0.8,1.3,0,0,0,0,40,0,0,0,0,0,21,21,0,30,0,0,23,0,0,22,0,40,0,37,22,0,0,0,0,0,0,0
6,11065,1,Zephyr2,1.59,3,   boost,162.3,100167,96.84,116.64,281.75,38.2,0,0,4.18,177.92,-2.71,-1.98,244.84,-5.47,2.24,-0.43,-0.17,0.14,12.92,4.2,0,0,4.18,0,1,1,10,27.933167,-80.7097543,49,2025,4,12,19,30,40,30,49,226,53,1.6,0.8,1.3,0,0,0,0,40,0,0,0,0,0,21,21,0,30,0,0,23,0,0,22,0,40,0,37,22,0,0,0,0,0,0,0
6,11065,1,Zephyr2,1.6,3,   boost,162.79,100167,96.84,116.64,283.3,38.2,0,0,4.18,178.73,-2.84,-2.07,240.51,-7,1.63,-0.43,-0.18,0.14,12.86,4.2,0,0,4.18,0,1,1,10,27.933167,-80.7097543,49,2025,4,12,19,30,40,30,49,226,53,1.6,0.8,1.3,0,0,0,0,40,0,0,0,0,0,21,21,0,30,0,0,23,0,0,22,0,40,0,37,22,0,0,0,0,0,0,0
6,11065,1,Zephyr2,1.61,3,   boost,154.95,100134,99.62,119.41,284.84,38.2,0,0,4.18,175.26,-3.2,-2.79,239.23,-10.54,1.75,-0.43,-0.19,0.14,12.77,4.2,0,0,4.18,0,1,1,10,27.933167,-80.7097543,49,2025,4,12,19,30,40,30,49,226,53,1.6,0.8,1.3,0,0,0,0,40,0,0,0,0,0,21,21,0,30,0,0,23,0,0,22,0,40,0,37,22,0,0,0,0,0,0,0
6,11065,1,Zephyr2,1.62,3,   boost,155.44,100134,99.62,119.41,286.37,38.2,0.01,0,4.18,173.81,-2.96,-2.99,241,-3.46,2.72,-0.43,-0.21,0.15,12.72,4.19,0,0,4.18,0,1,1,10,27.933167,-80.7097543,49,2025,4,12,19,30,40,30,49,226,53,1.6,0.8,1.3,0,0,0,0,40,0,0,0,0,0,21,21,0,30,0,0,23,0,0,22,0,40,0,37,22,0,0,0,0,0,0,0
6,11065,1,Zephyr2,1.62,3,   boost,155.44,100134,99.62,119.41,286.37,38.2,0.01,0,4.18,173.81,-2.96,-2.99,241,-3.46,2.72,-0.43,-0.21,0.15,12.72,4.19,0,0,4.18,0,1,1,10,27.933167,-80.7097543,49,2025,4,12,19,30,40,30,49,226,53,1.6,0.8,1.3,0,0,0,0,40,0,0,0,0,0,21,21,0,30,0,0,23,0,0,22,0,40,0,37,22,0,0,0,0,0,0,0
6,11065,1,Zephyr2,1.63,3,   boost,152.49,100098,102.64,122.44,287.88,38.3,0.01,0,4.18,172.55,-3.34,-4.15,235.32,-5.84,2.72,-0.43,-0.21,0.16,12.66,4.19,0,0,4.18,0,1,1,10,27.933167,-80.7097543,49,2025,4,12,19,30,40,30,49,226,53,1.6,0.8,1.3,0,0,0,0,40,0,0,0,0,0,21,21,0,30,0,0,23,0,0,22,0,40,0,37,22,0,0,0,0,0,0,0
6,11065,1,Zephyr2,1.64,3,   boost,154.95,100098,102.64,122.44,289.38,38.3,0.01,0,4.18,171.35,-4.45,-3.77,252.04,-3.52,1.5,-0.43,-0.23,0.16,12.62,4.19,0,0,4.18,0,1,1,10,27.933167,-80.7097543,49,2025,4,12,19,30,40,30,49,226,53,1.6,0.8,1.3,0,0,0,0,40,0,0,0,0,0,21,21,0,30,0,0,23,0,0,22,0,40,0,37,22,0,0,0,0,0,0,0
6,11065,1,Zephyr2,1.65,3,   boost,151.51,100085,103.74,123.53,290.88,38.3,0.01,0,4.18,171.66,-3.44,-3.52,240.39,-3.21,1.69,-0.43,-0.23,0.17,12.59,4.19,0,0,4.18,0,1,1,10,27.933167,-80.7097543,49,2025,4,12,19,30,40,30,49,226,53,1.6,0.8,1.3,0,0,0,0,40,0,0,0,0,0,21,21,0,30,0,0,23,0,0,22,0,40,0,37,22,0,0,0,0,0,0,0
6,11065,1,Zephyr2,1.66,3,   boost,153.96,100085,103.74,123.53,292.37,38.3,0.01,0,4.18,169.82,-6.53,-7.56,242.34,-0.59,2.72,-0.43,-0.23,0.17,12.57,4.19,0,0,4.18,0,1,1,10,27.933167,-80.7097543,49,2025,4,12,19,30,40,30,49,226,53,1.6,0.8,1.3,0,0,0,0,40,0,0,0,0,0,21,21,0,30,0,0,23,0,0,22,0,40,0,37,22,0,0,0,0,0,0,0
6,11065,1,Zephyr2,1.67,3,   boost,152.49,100038,107.69,127.48,293.85,38.3,0.01,0,4.18,169.3,-5.01,-6.04,247.83,-1.2,1.63,-0.43,-0.26,0.18,12.55,4.19,0,0,4.18,0,1,1,10,27.933167,-80.7097543,49,2025,4,12,19,30,40,30,49,226,53,1.6,0.8,1.3,0,0,0,0,40,0,0,0,0,0,21,21,0,30,0,0,23,0,0,22,0,40,0,37,22,0,0,0,0,0,0,0
6,11065,1,Zephyr2,1.68,3,   boost,152,100038,107.69,127.48,295.34,38.3,0.01,0,4.18,168.33,-6.9,-5.26,243.01,-2.79,1.14,-0.43,-0.26,0.19,12.52,4.19,0,0,4.18,0,1,1,10,27.933167,-80.7097543,49,2025,4,12,19,30,40,30,49,226,53,1.6,0.8,1.3,0,0,0,0,40,0,0,0,0,0,21,21,0,30,0,0,23,0,0,22,0,40,0,37,22,0,0,0,0,0,0,0
6,11065,1,Zephyr2,1.69,3,   boost,150.04,100001,110.8,130.59,296.82,38.3,0.01,0,4.18,167.81,-7.44,-5.87,248.87,-0.41,1.08,-0.43,-0.27,0.2,12.51,4.19,0,0,4.18,0,1,1,10,27.933167,-80.7097543,49,2025,4,12,19,30,40,30,49,226,53,1.6,0.8,1.3,0,0,0,0,40,0,0,0,0,0,21,21,0,30,0,0,23,0,0,22,0,40,0,37,22,0,0,0,0,0,0,0
6,11065,1,Zephyr2,1.7,3,   boost,153.47,100001,110.8,130.59,298.31,38.3,0.01,0,4.18,168.04,-5.29,-5.92,254.24,-0.04,0.77,-0.43,-0.28,0.21,12.51,4.19,0,0,4.18,0,1,1,10,27.933167,-80.7097543,49,2025,4,12,19,30,40,30,49,226,53,1.6,0.8,1.3,0,0,0,0,40,0,0,0,0,0,21,21,0,30,0,0,23,0,0,22,0,40,0,37,22,0,0,0,0,0,0,0
6,11065,1,Zephyr2,1.71,3,   boost,155.93,99993,111.47,131.27,299.78,38.2,0.01,0,4.18,166.46,-6.27,-4.65,255.09,-0.29,0.77,-0.43,-0.29,0.22,12.5,4.19,0,0,4.18,0,1,1,10,27.933167,-80.7097543,49,2025,4,12,19,30,40,30,49,226,53,1.6,0.8,1.3,0,0,0,0,40,0,0,0,0,0,21,21,0,30,0,0,23,0,0,22,0,40,0,37,22,0,0,0,0,0,0,0
6,11065,1,Zephyr2,1.72,3,   boost,146.12,99993,111.47,131.27,301.24,38.2,0.01,0,4.18,165.66,-4.77,-3.13,254.24,-0.65,1.38,-0.43,-0.3,0.23,12.49,4.19,0,0,4.18,0,1,1,10,27.933167,-80.7097543,49,2025,4,12,19,30,40,30,49,226,53,1.6,0.8,1.3,0,0,0,0,40,0,0,0,0,0,21,21,0,30,0,0,23,0,0,22,0,40,0,37,22,0,0,0,0,0,0,0
6,11065,1,Zephyr2,1.73,3,   boost,151.02,99977,112.82,132.61,302.69,38.2,0.01,0,4.18,164.83,-7.28,-4.08,269.01,1.97,1.69,-0.43,-0.31,0.24,12.51,4.19,0,0,4.18,0,1,1,10,27.933167,-80.7097543,49,2025,4,12,19,30,40,30,49,226,53,1.6,0.8,1.3,0,0,0,0,40,0,0,0,0,0,21,21,0,30,0,0,23,0,0,22,0,40,0,37,22,0,0,0,0,0,0,0
6,11065,1,Zephyr2,1.74,3,   boost,142.2,99977,112.82,132.61,304.12,38.2,0.01,0,4.18,163.71,-6.83,-3.35,264.8,1,0.16,-0.43,-0.32,0.25,12.52,4.19,0,0,4.18,0,1,1,10,27.933167,-80.7097543,49,2025,4,12,19,30,40,30,49,226,53,1.6,0.8,1.3,0,0,0,0,40,0,0,0,0,0,21,21,0,30,0,0,23,0,0,22,0,40,0,37,22,0,0,0,0,0,0,0
6,11065,1,Zephyr2,1.75,3,   boost,142.69,99958,114.42,134.21,305.54,38.3,0.01,0,4.18,161.75,-5.7,-4.41,264.56,3.8,1.02,-0.43,-0.32,0.26,12.55,4.19,0,0,4.18,0,1,1,10,27.933167,-80.7097543,49,2025,4,12,19,30,40,30,49,226,53,1.6,0.8,1.3,0,0,0,0,40,0,0,0,0,0,21,21,0,30,0,0,23,0,0,22,0,40,0,37,22,0,0,0,0,0,0,0
6,11065,1,Zephyr2,1.76,3,   boost,146.12,99958,114.42,134.21,306.95,38.3,0.01,0,4.18,160.87,-7.26,-4.73,268.28,1.06,0.95,-0.43,-0.33,0.27,12.56,4.19,0,0,4.18,0,1,1,10,27.933167,-80.7097543,49,2025,4,12,19,30,40,30,49,226,53,1.6,0.8,1.3,0,0,0,0,40,0,0,0,0,0,21,21,0,30,0,0,23,0,0,22,0,40,0,37,22,0,0,0,0,0,0,0
6,11065,1,Zephyr2,1.77,3,   boost,142.2,99944,115.6,135.39,308.35,38.3,0.01,0,4.18,160.46,-6.86,-3.83,266.69,1.3,2.24,-0.43,-0.33,0.27,12.58,4.19,0,0,4.18,0,1,1,10,27.933167,-80.7097543,49,2025,4,12,19,30,40,30,49,226,53,1.6,0.8,1.3,0,0,0,0,40,0,0,0,0,0,21,21,0,30,0,0,23,0,0,22,0,40,0,37,22,0,0,0,0,0,0,0
6,11065,1,Zephyr2,1.78,3,   boost,141.71,99944,115.6,135.39,309.75,38.3,0.01,0,4.18,160.51,-9.5,-2.87,274.75,8.99,2.48,-0.42,-0.35,0.3,12.66,4.19,0,0,4.18,0,1,1,10,27.933167,-80.7097543,49,2025,4,12,19,30,40,30,49,226,53,1.6,0.8,1.3,0,0,0,0,40,0,0,0,0,0,21,21,0,30,0,0,23,0,0,22,0,40,0,37,22,0,0,0,0,0,0,0
6,11065,1,Zephyr2,1.79,3,   boost,145.63,99932,116.61,136.4,311.14,38.3,0.01,0,4.18,159.16,-9.02,-1.48,275.36,4.35,2.85,-0.43,-0.35,0.31,12.71,4.19,0,0,4.18,0,1,1,10,27.933167,-80.7097543,49,2025,4,12,19,30,40,30,49,226,53,1.6,0.8,1.3,0,0,0,0,40,0,0,0,0,0,21,21,0,30,0,0,23,0,0,22,0,40,0,37,22,0,0,0,0,0,0,0
6,11065,1,Zephyr2,1.8,3,   boost,146.12,99932,116.61,136.4,312.53,38.3,0.01,0,4.18,157.58,-10.91,-2.79,277.56,6.31,0.71,-0.42,-0.36,0.32,12.77,4.19,0,0,4.18,0,1,1,10,27.933167,-80.7097543,49,2025,4,12,19,30,40,30,49,226,53,1.6,0.8,1.3,0,0,0,0,40,0,0,0,0,0,21,21,0,30,0,0,23,0,0,22,0,40,0,37,22,0,0,0,0,0,0,0
6,11065,1,Zephyr2,1.81,3,   boost,138.27,99907,118.71,138.5,313.9,38.3,0.01,0,4.18,156.32,-10.74,-1.36,280.24,2.89,-1.24,-0.42,-0.36,0.34,12.8,4.19,0,0,4.18,0,1,1,10,27.933167,-80.7097543,49,2025,4,12,19,30,40,30,49,226,53,1.6,0.8,1.3,0,0,0,0,40,0,0,0,0,0,21,21,0,30,0,0,23,0,0,22,0,40,0,37,22,0,0,0,0,0,0,0
6,11065,1,Zephyr2,1.82,3,   boost,139.25,99907,118.71,138.5,315.26,38.3,0.01,0,4.18,153.87,-9.76,-0.96,288.97,2.28,-0.69,-0.42,-0.37,0.35,12.82,4.19,0,0,4.18,0,1,1,10,27.933167,-80.7097543,49,2025,4,12,19,30,40,30,49,226,53,1.6,0.8,1.3,0,0,0,0,40,0,0,0,0,0,21,21,0,30,0,0,23,0,0,22,0,40,0,37,22,0,0,0,0,0,0,0
6,11065,1,Zephyr2,1.83,3,   boost,136.31,99902,119.13,138.93,316.6,38.2,0.01,0,4.18,152.48,-11.28,-0.7,298,2.28,1.75,-0.42,-0.37,0.37,12.85,4.19,0,0,4.18,0,1,1,10,27.933167,-80.7097543,49,2025,4,12,19,30,40,30,49,226,53,1.6,0.8,1.3,0,0,0,0,40,0,0,0,0,0,21,21,0,30,0,0,23,0,0,22,0,40,0,37,22,0,0,0,0,0,0,0
6,11065,1,Zephyr2,1.84,3,   boost,131.9,99902,119.13,138.93,317.92,38.2,0.01,0,4.18,150.4,-9.56,1.26,292.33,3.68,1.93,-0.42,-0.37,0.38,12.89,4.19,0,0,4.18,0,1,1,10,27.933167,-80.7097543,49,2025,4,12,19,30,40,30,49,226,53,1.6,0.8,1.3,0,0,0,0,40,0,0,0,0,0,21,21,0,30,0,0,23,0,0,22,0,40,0,37,22,0,0,0,0,0,0,0
6,11065,1,Zephyr2,1.85,3,   boost,134.35,99899,119.39,139.18,319.22,38.2,0.01,0,4.18,148.37,-10.18,-1.08,302.4,-7.79,-0.51,-0.42,-0.38,0.4,12.81,4.19,0,0,4.18,0,1,1,10,27.933167,-80.7097543,49,2025,4,12,19,30,40,30,49,226,53,1.6,0.8,1.3,0,0,0,0,40,0,0,0,0,0,21,21,0,30,0,0,23,0,0,22,0,40,0,37,22,0,0,0,0,0,0,0
6,11065,1,Zephyr2,1.86,3,   boost,132.39,99899,119.39,139.18,320.5,38.2,0.01,0,4.18,146.15,-8.74,2.51,289.15,1.85,-1,-0.42,-0.38,0.41,12.83,4.19,0,0,4.18,0,1,1,10,27.933167,-80.7097543,49,2025,4,12,19,30,40,30,49,226,53,1.6,0.8,1.3,0,0,0,0,40,0,0,0,0,0,21,21,0,30,0,0,23,0,0,22,0,40,0,37,22,0,0,0,0,0,0,0
6,11065,1,Zephyr2,1.87,3,   boost,128.47,99856,123.01,142.8,321.76,38.2,0.01,0,4.18,144.45,-10.09,2.67,282.44,3.38,-0.94,-0.42,-0.38,0.42,12.85,4.19,0,0,4.18,0,1,1,10,27.933167,-80.7097543,49,2025,4,12,19,30,40,30,49,226,53,1.6,0.8,1.3,0,0,0,0,40,0,0,0,0,0,21,21,0,30,0,0,23,0,0,22,0,40,0,37,22,0,0,0,0,0,0,0
6,11065,1,Zephyr2,1.88,3,   boost,124.54,99856,123.01,142.8,323.01,38.2,0.01,0,4.18,142.27,-10.42,3.66,272.06,8.87,-0.21,-0.42,-0.38,0.42,12.93,4.19,0,0,4.18,0,1,1,10,27.933167,-80.7097543,49,2025,4,12,19,30,40,30,49,226,53,1.6,0.8,1.3,0,0,0,0,40,0,0,0,0,0,21,21,0,30,0,0,23,0,0,22,0,40,0,37,22,0,0,0,0,0,0,0
6,11065,1,Zephyr2,1.89,3,   boost,127.49,99811,126.8,146.59,324.24,38.2,0.01,0,4.18,140.04,-9.28,2.6,258.94,-8.89,-0.57,-0.42,-0.38,0.45,12.85,4.19,0,0,4.18,0,1,1,10,27.933167,-80.7097543,49,2025,4,12,19,30,40,30,49,226,53,1.6,0.8,1.3,0,0,0,0,40,0,0,0,0,0,21,21,0,30,0,0,23,0,0,22,0,40,0,37,22,0,0,0,0,0,0,0
6,11065,1,Zephyr2,1.9,3,   boost,124.54,99811,126.8,146.59,325.46,38.2,0.01,0,4.18,137.72,-12.09,2.44,251.68,-3.34,-1.18,-0.42,-0.38,0.47,12.82,4.19,0,0,4.18,0,1,1,10,27.933167,-80.7097543,49,2025,4,12,19,30,40,30,49,226,53,1.6,0.8,1.3,0,0,0,0,40,0,0,0,0,0,21,21,0,30,0,0,23,0,0,22,0,40,0,37,22,0,0,0,0,0,0,0
6,11065,1,Zephyr2,1.91,3,   boost,124.05,99738,132.95,152.74,326.65,38.2,0.01,0,4.18,135.95,-10.49,4.4,242.95,1.36,-0.82,-0.42,-0.38,0.48,12.82,4.19,0,0,4.18,0,1,1,10,27.933167,-80.7097543,49,2025,4,12,19,30,40,30,49,226,53,1.6,0.8,1.3,0,0,0,0,40,0,0,0,0,0,21,21,0,30,0,0,23,0,0,22,0,40,0,37,22,0,0,0,0,0,0,0
6,11065,1,Zephyr2,1.92,3,   boost,117.68,99738,132.95,152.74,327.83,38.2,0.01,0,4.18,133.95,-10.24,3.5,238.19,-3.28,-1.79,-0.42,-0.38,0.49,12.79,4.19,0,0,4.18,0,1,1,10,27.933167,-80.7097543,49,2025,4,12,19,30,40,30,49,226,53,1.6,0.8,1.3,0,0,0,0,40,0,0,0,0,0,21,21,0,30,0,0,23,0,0,22,0,40,0,37,22,0,0,0,0,0,0,0
6,11065,1,Zephyr2,1.93,3,   boost,117.19,99636,141.55,161.35,329,38.2,0.01,0,4.18,131.77,-11.78,2.74,218.96,0.63,-1.67,-0.42,-0.38,0.5,12.78,4.19,0,0,4.18,0,1,1,10,27.933167,-80.7097543,49,2025,4,12,19,30,40,30,49,226,53,1.6,0.8,1.3,0,0,0,0,40,0,0,0,0,0,21,21,0,30,0,0,23,0,0,22,0,40,0,37,22,0,0,0,0,0,0,0
6,11065,1,Zephyr2,1.94,3,   boost,119.15,99636,141.55,161.35,330.14,38.2,0,0,4.18,130.77,-10.28,5.78,218.66,6.31,-1.43,-0.42,-0.37,0.51,12.82,4.2,0,0,4.18,0,1,1,10,27.933167,-80.7097543,49,2025,4,12,19,30,40,30,49,226,53,1.6,0.8,1.3,0,0,0,0,40,0,0,0,0,0,21,21,0,30,0,0,23,0,0,22,0,40,0,37,22,0,0,0,0,0,0,0
6,11065,1,Zephyr2,1.94,3,   boost,119.15,99636,141.55,161.35,330.14,38.2,0,0,4.18,130.77,-10.28,5.78,218.66,6.31,-1.43,-0.42,-0.37,0.51,12.82,4.2,0,0,4.18,0,1,1,10,27.933167,-80.7097543,49,2025,4,12,19,30,40,30,49,226,53,1.6,0.8,1.3,0,0,0,0,40,0,0,0,0,0,21,21,0,30,0,0,23,0,0,22,0,40,0,37,22,0,0,0,0,0,0,0
6,11065,1,Zephyr2,1.95,3,   boost,116.21,99562,147.8,167.59,331.27,38.2,0,0,4.18,128.4,-10.53,4.47,192.47,-2.48,-1.85,-0.42,-0.37,0.52,12.79,4.2,0,0,4.18,0,1,1,10,27.933167,-80.7097543,49,2025,4,12,19,30,40,30,49,226,53,1.6,0.8,1.3,0,0,0,0,40,0,0,0,0,0,21,21,0,30,0,0,23,0,0,22,0,40,0,37,22,0,0,0,0,0,0,0
6,11065,1,Zephyr2,1.96,3,   boost,114.25,99562,147.8,167.59,332.37,38.2,0,0,4.18,126.8,-10.53,2.89,215.97,2.58,-0.27,-0.42,-0.37,0.53,12.8,4.2,0,0,4.18,0,1,1,10,27.933167,-80.7097543,49,2025,4,12,19,30,40,30,49,226,53,1.6,0.8,1.3,0,0,0,0,40,0,0,0,0,0,21,21,0,30,0,0,23,0,0,22,0,40,0,37,22,0,0,0,0,0,0,0
6,11065,1,Zephyr2,1.97,3,   boost,102.48,99451,157.18,176.97,333.45,38.2,0,0,4.18,125.44,-9.3,4.59,208.59,-3.21,-2.71,-0.42,-0.36,0.54,12.76,4.2,0,0,4.18,0,1,1,10,27.933167,-80.7097543,49,2025,4,12,19,30,40,30,49,226,53,1.6,0.8,1.3,0,0,0,0,40,0,0,0,0,0,21,21,0,30,0,0,23,0,0,22,0,40,0,37,22,0,0,0,0,0,0,0
6,11065,1,Zephyr2,1.98,3,   boost,108.85,99451,157.18,176.97,334.52,38.2,0,0,4.18,124.3,-10.07,3.46,208.59,6.49,-1.37,-0.42,-0.36,0.55,12.79,4.2,0,0,4.18,0,1,1,10,27.933167,-80.7097543,49,2025,4,12,19,30,40,30,49,226,53,1.6,0.8,1.3,0,0,0,0,40,0,0,0,0,0,21,21,0,30,0,0,23,0,0,22,0,40,0,37,22,0,0,0,0,0,0,0
6,11065,1,Zephyr2,1.99,3,   boost,108.85,99329,167.49,187.29,335.58,38.2,0,0,4.18,122.96,-9.22,4.4,197.54,4.54,-1.79,-0.42,-0.36,0.55,12.8,4.2,0,0,4.18,0,1,1,10,27.933167,-80.7097543,49,2025,4,12,19,30,40,30,49,226,53,1.6,0.8,1.3,0,0,0,0,40,0,0,0,0,0,21,21,0,30,0,0,23,0,0,22,0,40,0,37,22,0,0,0,0,0,0,0
6,11065,1,Zephyr2,2,3,   boost,113.27,99329,167.49,187.29,336.63,38.2,0,0,4.18,121.92,-8.71,2.95,188.69,-1.02,-2.1,-0.42,-0.35,0.57,12.78,4.2,0,0,4.18,0,1,1,10,27.933167,-80.7097543,49,2025,4,12,19,30,40,30,49,226,53,1.6,0.8,1.3,0,0,0,0,40,0,0,0,0,0,21,21,0,30,0,0,23,0,0,22,0,40,0,37,22,0,0,0,0,0,0,0
6,11065,1,Zephyr2,2.01,3,   boost,104.44,99238,175.19,194.99,337.67,38.2,0,0,4.18,120.34,-8.31,4.36,191.13,-11.58,-2.1,-0.42,-0.35,0.58,12.7,4.2,0,0,4.18,0,1,1,10,27.933167,-80.7097543,49,2025,4,12,19,30,40,30,49,226,53,1.6,0.8,1.3,0,0,0,0,40,0,0,0,0,0,21,21,0,30,0,0,23,0,0,22,0,40,0,37,22,0,0,0,0,0,0,0
6,11065,1,Zephyr2,2.02,3,   boost,101.99,99238,175.19,194.99,338.71,38.2,0,0,4.18,119.27,-8.22,3.99,208.52,2.1,-2.1,-0.42,-0.34,0.59,12.69,4.2,0,0,4.18,0,1,1,10,27.933167,-80.7097543,49,2025,4,12,19,30,40,30,49,226,53,1.6,0.8,1.3,0,0,0,0,40,0,0,0,0,0,21,21,0,30,0,0,23,0,0,22,0,40,0,37,22,0,0,0,0,0,0,0
6,11065,1,Zephyr2,2.03,3,   boost,104.93,99194,178.92,198.71,339.74,38.2,0,0,4.18,117.76,-8.5,3.87,206.14,2.28,-0.63,-0.42,-0.34,0.59,12.7,4.2,0,0,4.18,0,1,1,10,27.933167,-80.7097543,49,2025,4,12,19,30,40,30,49,226,53,1.6,0.8,1.3,0,0,0,0,40,0,0,0,0,0,21,21,0,30,0,0,23,0,0,22,0,40,0,37,22,0,0,0,0,0,0,0
6,11065,1,Zephyr2,2.04,3,   boost,108.85,99194,178.92,198.71,340.76,38.2,0,0,4.18,116.96,-6.29,5.16,195.46,0.81,-1.06,-0.42,-0.33,0.6,12.69,4.2,0,0,4.18,0,1,1,10,27.933167,-80.7097543,49,2025,4,12,19,30,40,30,49,226,53,1.6,0.8,1.3,0,0,0,0,40,0,0,0,0,0,21,21,0,30,0,0,23,0,0,22,0,40,0,37,22,0,0,0,0,0,0,0
6,11065,1,Zephyr2,2.05,3,   boost,104.44,99131,184.26,204.05,341.77,38.2,0,0,4.18,116.26,-8.15,3.24,175.99,1.61,-0.63,-0.42,-0.33,0.61,12.69,4.2,0,0,4.18,0,1,1,10,27.933167,-80.7097543,49,2025,4,12,19,30,40,30,49,226,53,1.6,0.8,1.3,0,0,0,0,40,0,0,0,0,0,21,21,0,30,0,0,23,0,0,22,0,40,0,37,22,0,0,0,0,0,0,0
6,11065,1,Zephyr2,2.06,3,   boost,101.01,99131,184.26,204.05,342.78,38.2,0,0,4.18,114.91,-9.58,5.08,184.42,-1.38,-0.39,-0.42,-0.32,0.62,12.68,4.2,0,0,4.18,0,1,1,10,27.933167,-80.7097543,49,2025,4,12,19,30,40,30,49,226,53,1.6,0.8,1.3,0,0,0,0,40,0,0,0,0,0,21,21,0,30,0,0,23,0,0,22,0,40,0,37,22,0,0,0,0,0,0,0
6,11065,1,Zephyr2,2.07,3,   boost,101.99,98910,203,222.79,343.77,38.2,0,0,4.18,115.06,-8.87,4.07,207.06,-3.95,-1.3,-0.42,-0.32,0.63,12.66,4.2,0,0,4.18,0,1,1,10,27.933167,-80.7097543,49,2025,4,12,19,30,40,30,49,226,53,1.6,0.8,1.3,0,0,0,0,40,0,0,0,0,0,21,21,0,30,0,0,23,0,0,22,0,40,0,37,22,0,0,0,0,0,0,0
6,11065,1,Zephyr2,2.08,3,   boost,98.07,98910,203,222.79,344.76,38.2,0,0,4.18,114.45,-7.99,4.96,202.24,3.01,1.02,-0.42,-0.31,0.63,12.68,4.2,0,0,4.18,0,1,1,10,27.933167,-80.7097543,49,2025,4,12,19,30,40,30,49,226,53,1.6,0.8,1.3,0,0,0,0,40,0,0,0,0,0,21,21,0,30,0,0,23,0,0,22,0,40,0,37,22,0,0,0,0,0,0,0
6,11065,1,Zephyr2,2.09,3,   boost,102.48,98335,251.92,271.71,345.76,38.2,0,0,4.18,114.47,-10.01,4.16,193.57,4.66,-0.45,-0.42,-0.31,0.64,12.69,4.2,0,0,4.18,0,1,1,10,27.933167,-80.7097543,49,2025,4,12,19,30,40,30,49,226,53,1.6,0.8,1.3,0,0,0,0,40,0,0,0,0,0,21,21,0,30,0,0,23,0,0,22,0,40,0,37,22,0,0,0,0,0,0,0
6,11065,1,Zephyr2,2.1,3,   boost,101.5,98335,251.92,271.71,346.75,38.2,0,0,4.18,114.17,-9.19,2.54,190.89,3.19,-1.73,-0.42,-0.31,0.64,12.68,4.2,0,0,4.18,0,1,1,10,27.933167,-80.7097543,49,2025,4,12,19,30,40,30,49,226,53,1.6,0.8,1.3,0,0,0,0,40,0,0,0,0,0,21,21,0,30,0,0,23,0,0,22,0,40,0,37,22,0,0,0,0,0,0,0
6,11065,1,Zephyr2,2.11,3,   boost,106.4,98229,260.97,280.76,347.75,38.2,0,0,4.18,114.58,-7.54,2.36,196.01,-2.24,-1.73,-0.42,-0.29,0.66,12.66,4.2,0,0,4.18,0,1,1,10,27.933167,-80.7097543,49,2025,4,12,19,30,40,30,49,226,53,1.6,0.8,1.3,0,0,0,0,40,0,0,0,0,0,21,21,0,30,0,0,23,0,0,22,0,40,0,37,22,0,0,0,0,0,0,0
6,11065,1,Zephyr2,2.12,3,   boost,104.93,98229,260.97,280.76,348.74,38.2,0,0,4.18,114.53,-9.47,1.37,184.84,-8.1,0.16,-0.41,-0.29,0.66,12.64,4.2,0,0,4.18,0,1,1,10,27.933167,-80.7097543,49,2025,4,12,19,30,40,30,49,226,53,1.6,0.8,1.3,0,0,0,0,40,0,0,0,0,0,21,21,0,30,0,0,23,0,0,22,0,40,0,37,22,0,0,0,0,0,0,0
6,11065,1,Zephyr2,2.13,3,   boost,100.03,98390,247.23,267.02,349.72,38.2,0,0,4.18,114.82,-6.19,1.4,191.98,-5.35,-1.61,-0.42,-0.28,0.67,12.62,4.2,0,0,4.18,0,1,1,10,27.933167,-80.7097543,49,2025,4,12,19,30,40,30,49,226,53,1.6,0.8,1.3,0,0,0,0,40,0,0,0,0,0,21,21,0,30,0,0,23,0,0,22,0,40,0,37,22,0,0,0,0,0,0,0
6,11065,1,Zephyr2,2.14,3,   boost,99.05,98390,247.23,267.02,350.65,38.2,0,0,4.18,114.98,-6.8,0.91,181.12,-10.36,-1.3,-0.42,-0.27,0.67,12.59,4.2,0,0,4.18,0,1,1,10,27.933167,-80.7097543,49,2025,4,12,19,30,40,30,49,226,53,1.6,0.8,1.3,0,0,0,0,40,0,0,0,0,0,21,21,0,30,0,0,23,0,0,22,0,40,0,37,22,0,0,0,0,0,0,0
6,11065,1,Zephyr2,2.15,3,   boost,94.14,98488,238.88,258.67,351.52,38.2,0,0,4.18,111.43,-7.59,2.19,182.1,-5.23,-1.67,-0.41,-0.27,0.68,12.57,4.2,0,0,4.18,0,1,1,10,27.933167,-80.7097543,49,2025,4,12,19,30,40,30,49,226,53,1.6,0.8,1.3,0,0,0,0,40,0,0,0,0,0,21,21,0,30,0,0,23,0,0,22,0,40,0,37,22,0,0,0,0,0,0,0
6,11065,1,Zephyr2,2.16,3,   boost,78.45,98488,238.88,258.67,352.29,38.2,0,0,4.18,104.06,-5.61,2,190.21,-1.99,-0.45,-0.42,-0.26,0.69,12.56,4.2,0,0,4.18,0,1,1,10,27.933167,-80.7097543,49,2025,4,12,19,30,40,30,49,226,53,1.6,0.8,1.3,0,0,0,0,40,0,0,0,0,0,21,21,0,30,0,0,23,0,0,22,0,40,0,37,22,0,0,0,0,0,0,0
6,11065,1,Zephyr2,2.17,3,   boost,62.76,98428,243.99,263.79,352.93,38.2,0,0,4.18,86.53,-7.95,1.49,181.24,12.17,1.26,-0.42,-0.25,0.69,12.58,4.2,0,0,4.18,0,1,1,10,27.933167,-80.7097543,49,2025,4,12,19,30,40,30,49,226,53,1.6,0.8,1.3,0,0,0,0,40,0,0,0,0,0,21,21,0,30,0,0,23,0,0,22,0,40,0,37,22,0,0,0,0,0,0,0
6,11065,1,Zephyr2,2.18,3,   boost,41.68,98428,243.99,263.79,353.41,38.2,0,0,4.18,66.99,-7.38,4.12,178.37,3.01,1.87,-0.41,-0.25,0.69,12.6,4.2,0,0,4.18,0,1,1,10,27.933167,-80.7097543,49,2025,4,12,19,30,40,30,49,226,53,1.6,0.8,1.3,0,0,0,0,40,0,0,0,0,0,21,21,0,30,0,0,23,0,0,22,0,40,0,37,22,0,0,0,0,0,0,0
6,11065,1,Zephyr2,2.19,3,   boost,21.57,98192,264.12,283.92,353.72,38.2,0,0,4.18,48.86,-9.37,1.34,185.15,-1.02,2.91,-0.41,-0.24,0.7,12.63,4.2,0,0,4.18,0,1,1,10,27.933167,-80.7097543,49,2025,4,12,19,30,40,30,49,226,53,1.6,0.8,1.3,0,0,0,0,40,0,0,0,0,0,21,21,0,30,0,0,23,0,0,22,0,40,0,37,22,0,0,0,0,0,0,0
6,11065,1,Zephyr2,2.2,3,   boost,0.49,98192,264.12,283.92,353.85,38.2,0,0,4.18,29.99,-14.11,1.54,180.14,1.36,1.44,-0.41,-0.23,0.71,12.64,4.2,0,0,4.18,0,1,1,10,27.933167,-80.7097543,49,2025,4,12,19,30,40,30,49,226,53,1.6,0.8,1.3,0,0,0,0,40,0,0,0,0,0,21,21,0,30,0,0,23,0,0,22,0,40,0,37,22,0,0,0,0,0,0,0
6,11065,1,Zephyr2,2.21,3,   boost,-12.75,98082,273.52,293.31,353.81,38.2,0,0,4.18,9.78,-9.86,4.71,175.5,-3.58,0.95,-0.41,-0.23,0.71,12.65,4.2,0,0,4.18,0,1,1,10,27.933167,-80.7097543,49,2025,4,12,19,30,40,30,49,226,53,1.6,0.8,1.3,0,0,0,0,40,0,0,0,0,0,21,21,0,30,0,0,23,0,0,22,0,40,0,37,22,0,0,0,0,0,0,0
6,11065,1,Zephyr2,2.22,3,   boost,-33.83,98082,273.52,293.31,353.63,38.2,0,0,4.18,-4.84,-10.22,4.79,191.07,1.55,0.34,-0.41,-0.22,0.71,12.66,4.2,0,0,4.18,0,1,1,10,27.933167,-80.7097543,49,2025,4,12,19,30,40,30,49,226,53,1.6,0.8,1.3,0,0,0,0,40,0,0,0,0,0,21,21,0,30,0,0,23,0,0,22,0,40,0,37,22,0,0,0,0,0,0,0
6,11065,1,Zephyr2,2.23,3,   boost,-41.68,97961,283.87,303.66,353.33,38.2,0,0,4.18,-19.48,-12.36,2.7,190.52,4.11,-2.59,-0.41,-0.21,0.71,12.62,4.2,0,0,4.18,0,1,1,10,27.933167,-80.7097543,49,2025,4,12,19,30,40,30,49,226,53,1.6,0.8,1.3,0,0,0,0,40,0,0,0,0,0,21,21,0,30,0,0,23,0,0,22,0,40,0,37,22,0,0,0,0,0,0,0
6,11065,1,Zephyr2,2.24,3,   boost,-43.64,97961,283.87,303.66,352.93,38.2,0,0,4.18,-29.56,-7.74,3.49,171.9,-1.08,-6.06,-0.41,-0.2,0.72,12.57,4.2,0,0,4.18,0,1,1,10,27.933167,-80.7097543,49,2025,4,12,19,30,40,30,49,226,53,1.6,0.8,1.3,0,0,0,0,40,0,0,0,0,0,21,21,0,30,0,0,23,0,0,22,0,40,0,37,22,0,0,0,0,0,0,0
6,11065,1,Zephyr2,2.25,3,   boost,-55.41,97878,290.97,310.76,352.45,38.2,0,0,4.18,-37.62,-7.42,3.18,176.3,-4.86,-8.99,-0.41,-0.19,0.72,12.49,4.2,0,0,4.18,0,1,1,10,27.933167,-80.7097543,49,2025,4,12,19,30,40,30,49,226,53,1.6,0.8,1.3,0,0,0,0,40,0,0,0,0,0,21,21,0,30,0,0,23,0,0,22,0,40,0,37,22,0,0,0,0,0,0,0
6,11065,1,Zephyr2,2.26,3,   boost,-61.29,97878,290.97,310.76,351.91,38.2,0,0,4.18,-44.04,-8.78,0.55,197.78,-6.94,-11.62,-0.41,-0.18,0.72,12.39,4.18,0,0,4.19,0,1,1,10,27.933167,-80.7097543,49,2025,4,12,19,30,40,30,49,226,53,1.6,0.8,1.3,0,0,0,0,40,0,0,0,0,0,21,21,0,30,0,0,23,0,0,22,0,40,0,37,22,0,0,0,0,0,0,0
6,11065,1,Zephyr2,2.26,3,   boost,-61.29,97878,290.97,310.76,351.91,38.2,0,0,4.18,-44.04,-8.78,0.55,197.78,-6.94,-11.62,-0.41,-0.18,0.72,12.39,4.18,0,0,4.19,0,1,1,10,27.933167,-80.7097543,49,2025,4,12,19,30,40,30,49,226,53,1.6,0.8,1.3,0,0,0,0,40,0,0,0,0,0,21,21,0,30,0,0,23,0,0,22,0,40,0,37,22,0,0,0,0,0,0,0
6,11065,1,Zephyr2,2.26,3,   boost,-61.29,97878,290.97,310.76,351.91,38.2,0,0,4.18,-44.04,-8.78,0.55,197.78,-6.94,-11.62,-0.41,-0.18,0.72,12.39,4.18,0,0,4.19,0,1,1,10,27.933167,-80.7097543,49,2025,4,12,19,30,40,30,49,226,53,1.6,0.8,1.3,0,0,0,0,40,0,0,0,0,0,21,21,0,30,0,0,23,0,0,22,0,40,0,37,22,0,0,0,0,0,0,0
6,11065,1,Zephyr2,2.27,3,   boost,-59.82,97869,291.74,311.53,351.32,38.2,0,0,4.18,-47.73,-2.75,2.46,188.08,9.3,-11.44,-0.41,-0.17,0.73,12.26,4.18,0,0,4.19,0,1,1,10,27.933167,-80.7097543,49,2025,4,12,19,30,40,30,49,226,53,1.6,0.8,1.3,0,0,0,0,23,0,0,0,0,0,17,18,0,30,0,0,19,0,0,18,0,22,0,22,19,0,0,0,0,0,0,0
6,11065,1,Zephyr2,2.28,3,   boost,-69.63,97869,291.74,311.53,350.69,38.2,0,0,4.18,-51.35,-1.84,1.38,206.75,2.71,-6.31,-0.41,-0.16,0.73,12.19,4.18,0,0,4.19,0,1,1,10,27.933167,-80.7097543,49,2025,4,12,19,30,40,30,49,226,53,1.6,0.8,1.3,0,0,0,0,23,0,0,0,0,0,17,18,0,30,0,0,19,0,0,18,0,22,0,22,19,0,0,0,0,0,0,0
6,11065,1,Zephyr2,2.29,3,   boost,-71.1,97951,284.72,304.52,350.01,38.2,0,0,4.18,-55.7,5,2.77,216.46,4.84,-7.41,-0.41,-0.15,0.73,12.1,4.18,0,0,4.19,0,1,1,10,27.933167,-80.7097543,49,2025,4,12,19,30,40,30,49,226,53,1.6,0.8,1.3,0,0,0,0,23,0,0,0,0,0,17,18,0,30,0,0,19,0,0,18,0,22,0,22,19,0,0,0,0,0,0,0
6,11065,1,Zephyr2,2.3,3,   boost,-76.49,97951,284.72,304.52,349.25,38.2,0,0,4.18,-62.8,3.17,5.91,225.61,-6.45,-12.05,-0.41,-0.14,0.73,12.02,4.18,0,0,4.19,0,1,1,10,27.933167,-80.7097543,49,2025,4,12,19,30,40,30,49,226,53,1.6,0.8,1.3,0,0,0,0,23,0,0,0,0,0,17,18,0,30,0,0,19,0,0,18,0,22,0,22,19,0,0,0,0,0,0,0
6,11065,1,Zephyr2,2.31,3,   boost,-74.04,97737,303.05,322.84,348.4,38.2,0,0,4.18,-64.77,2.18,7.01,244.72,-6.69,-14.67,-0.41,-0.13,0.73,11.91,4.18,0,0,4.19,0,1,1,10,27.933167,-80.7097543,49,2025,4,12,19,30,40,30,49,226,53,1.6,0.8,1.3,0,0,0,0,23,0,0,0,0,0,17,18,0,30,0,0,19,0,0,18,0,22,0,22,19,0,0,0,0,0,0,0
6,11065,1,Zephyr2,2.32,4,    fast,-70.61,97737,303.05,322.84,347.41,38.2,0,0,4.18,-62.51,8.56,4.45,238.07,-10.29,-15.28,-0.41,-0.13,0.73,11.83,4.18,0,0,4.19,0,1,1,10,27.933167,-80.7097543,49,2025,4,12,19,30,40,30,49,226,53,1.6,0.8,1.3,0,0,0,0,23,0,0,0,0,0,17,18,0,30,0,0,19,0,0,18,0,22,0,22,19,0,0,0,0,0,0,0
6,11065,1,Zephyr2,2.32,4,    fast,-70.61,97737,303.05,322.84,347.41,38.2,0,0,4.18,-62.51,8.56,4.45,238.07,-10.29,-15.28,-0.41,-0.13,0.73,11.83,4.18,0,0,4.19,0,1,1,10,27.933167,-80.7097543,49,2025,4,12,19,30,40,30,49,226,53,1.6,0.8,1.3,0,0,0,0,23,0,0,0,0,0,17,18,0,30,0,0,19,0,0,18,0,22,0,22,19,0,0,0,0,0,0,0
6,11065,1,Zephyr2,2.33,4,    fast,-195.15,97378,333.86,353.66,346.29,38.2,0,0,4.18,-80.72,2.64,4.91,232.63,-8.83,-14.37,-0.42,-0.11,0.73,11.75,4.18,0,0,4.19,0,1,1,10,27.933167,-80.7097543,49,2025,4,12,19,30,40,30,49,226,53,1.6,0.8,1.3,0,0,0,0,23,0,0,0,0,0,17,18,0,30,0,0,19,0,0,18,0,22,0,22,19,0,0,0,0,0,0,0
6,11065,1,Zephyr2,2.34,4,    fast,-141.71,97378,333.86,353.66,345.09,38.2,0,0,4.18,-196.1,9.81,12.13,245.02,-25.55,-10.52,-0.42,-0.09,0.73,11.81,4.18,0,0,4.19,0,1,1,10,27.933167,-80.7097543,49,2025,4,12,19,30,40,30,49,226,53,1.6,0.8,1.3,0,0,0,0,23,0,0,0,0,0,17,18,0,30,0,0,19,0,0,18,0,22,0,22,19,0,0,0,0,0,0,0
6,11065,1,Zephyr2,2.35,4,    fast,-127,99159,181.88,201.68,343.89,38.2,0,0,4.18,-135.27,10.63,11.21,287.02,-1.32,-7.65,-0.42,-0.08,0.73,11.76,4.18,0,0,4.19,0,1,1,10,27.933167,-80.7097543,49,2025,4,12,19,30,40,30,49,226,53,1.6,0.8,1.3,0,0,0,0,23,0,0,0,0,0,17,18,0,30,0,0,19,0,0,18,0,22,0,22,19,0,0,0,0,0,0,0
6,11065,1,Zephyr2,2.36,4,    fast,-101.01,99159,181.88,201.68,342.73,38.2,0,0,4.18,-116.97,12.58,1.62,270.84,-11.76,-2.28,-0.42,-0.07,0.73,11.82,4.18,0,0,4.19,0,1,1,10,27.933167,-80.7097543,49,2025,4,12,19,30,40,30,49,226,53,1.6,0.8,1.3,0,0,0,0,23,0,0,0,0,0,17,18,0,30,0,0,19,0,0,18,0,22,0,22,19,0,0,0,0,0,0,0
6,11065,1,Zephyr2,2.37,4,    fast,-80.9,97945,285.24,305.03,341.6,38.2,0,0,4.18,-86.22,1.96,1.77,313.57,-10.78,10.05,-0.42,-0.05,0.72,11.97,4.18,0,0,4.19,0,1,1,10,27.933167,-80.7097543,49,2025,4,12,19,30,40,30,49,226,53,1.6,0.8,1.3,0,0,0,0,23,0,0,0,0,0,17,18,0,30,0,0,19,0,0,18,0,22,0,22,19,0,0,0,0,0,0,0
6,11065,1,Zephyr2,2.38,4,    fast,-95.61,97945,285.24,305.03,340.47,38.2,0,0,4.18,-65.86,-4.64,0.24,308.87,-13.16,22.99,-0.42,-0.04,0.72,12.22,4.18,0,0,4.19,0,1,1,10,27.933167,-80.7097543,49,2025,4,12,19,30,40,30,49,226,53,1.6,0.8,1.3,0,0,0,0,23,0,0,0,0,0,17,18,0,30,0,0,19,0,0,18,0,22,0,22,19,0,0,0,0,0,0,0
6,11065,1,Zephyr2,2.39,4,    fast,-147.1,96805,383.24,403.03,339.29,38.2,0,0,4.18,-79.44,-7.58,-19.33,349.94,-32.02,23.48,-0.42,-0.03,0.71,12.62,4.18,0,0,4.19,0,1,1,10,27.933167,-80.7097543,49,2025,4,12,19,30,40,30,49,226,53,1.6,0.8,1.3,0,0,0,0,23,0,0,0,0,0,17,18,0,30,0,0,19,0,0,18,0,22,0,22,19,0,0,0,0,0,0,0
6,11065,1,Zephyr2,2.4,4,    fast,-153.47,96805,383.24,403.03,338.04,38.2,0,0,4.18,-135.81,-16.32,-19.37,338.65,-20.85,24.03,-0.42,-0.01,0.7,12.93,4.18,0,0,4.19,0,1,1,10,27.933167,-80.7097543,49,2025,4,12,19,30,40,30,49,226,53,1.6,0.8,1.3,0,0,0,0,23,0,0,0,0,0,17,18,0,30,0,0,19,0,0,18,0,22,0,22,19,0,0,0,0,0,0,0
6,11065,1,Zephyr2,2.41,4,    fast,-135.33,97643,311.11,330.9,336.75,38.2,0,0,4.18,-139.33,18.57,70.99,344.33,-12.25,33.67,-0.42,0,0.69,13.21,4.18,0,0,4.19,0,1,1,10,27.933167,-80.7097543,49,2025,4,12,19,30,40,30,49,226,53,1.6,0.8,1.3,0,0,0,0,23,0,0,0,0,0,17,18,0,30,0,0,19,0,0,18,0,22,0,22,19,0,0,0,0,0,0,0
6,11065,1,Zephyr2,2.42,4,    fast,-140.24,97643,311.11,330.9,335.41,38.2,0,0,4.18,-183.17,-7.11,-20.68,226.53,-13.71,-48.85,-0.42,0.01,0.7,13.09,4.18,0,0,4.19,0,1,1,10,27.933167,-80.7097543,49,2025,4,12,19,30,40,30,49,226,53,1.6,0.8,1.3,0,0,0,0,23,0,0,0,0,0,17,18,0,30,0,0,19,0,0,18,0,22,0,22,19,0,0,0,0,0,0,0
6,11065,1,Zephyr2,2.43,4,    fast,-127,98665,223.82,243.61,333.94,38.2,0,0,4.18,-151.2,62.02,33.97,145.96,-11.64,-23.52,-0.42,0.01,0.7,13.1,4.18,0,0,4.19,0,1,1,10,27.933167,-80.7097543,49,2025,4,12,19,30,40,30,49,226,53,1.6,0.8,1.3,0,0,0,0,23,0,0,0,0,0,17,18,0,30,0,0,19,0,0,18,0,22,0,22,19,0,0,0,0,0,0,0
6,11065,1,Zephyr2,2.44,4,    fast,-82.87,98665,223.82,243.61,332.23,38.2,0,0,4.18,-136.95,-68.62,-32.07,-50.26,-52.04,-27.79,-0.43,0,0.71,13.47,4.18,0,0,4.19,0,1,1,10,27.933167,-80.7097543,49,2025,4,12,19,30,40,30,49,226,53,1.6,0.8,1.3,0,0,0,0,23,0,0,0,0,0,17,18,0,30,0,0,19,0,0,18,0,22,0,22,19,0,0,0,0,0,0,0
6,11065,1,Zephyr2,2.45,4,    fast,-138.76,96284,428.34,448.13,330.22,38.2,0,0,4.18,-117.79,59.08,-48.12,-242.71,-79.57,52.16,-0.43,-0.01,0.72,14.41,4.18,0,0,4.19,0,1,1,10,27.933167,-80.7097543,49,2025,4,12,19,30,40,30,49,226,53,1.6,0.8,1.3,0,0,0,0,23,0,0,0,0,0,17,18,0,30,0,0,19,0,0,18,0,22,0,22,19,0,0,0,0,0,0,0
6,11065,1,Zephyr2,2.46,4,    fast,-679.11,96284,428.34,448.13,327.97,38.2,0,0,4.18,-109.99,-85.97,-111.29,-14.07,-85.37,69.44,-0.44,-0.01,0.73,15.48,4.18,0,0,4.19,0,1,1,10,27.933167,-80.7097543,49,2025,4,12,19,30,40,30,49,226,53,1.6,0.8,1.3,0,0,0,0,23,0,0,0,0,0,17,18,0,30,0,0,19,0,0,18,0,22,0,22,19,0,0,0,0,0,0,0
6,11065,1,Zephyr2,2.47,4,    fast,-89.73,96193,436.24,456.03,325.62,38.2,0,0,4.18,-221.95,143.63,-1.88,137.66,-91.41,84.69,-0.46,-0.05,0.8,16.68,4.18,0,0,4.19,0,1,1,10,27.933167,-80.7097543,49,2025,4,12,19,30,40,30,49,226,53,1.6,0.8,1.3,0,0,0,0,23,0,0,0,0,0,17,18,0,30,0,0,19,0,0,18,0,22,0,22,19,0,0,0,0,0,0,0
6,11065,1,Zephyr2,2.48,4,    fast,-188.29,96193,436.24,456.03,323.29,38.2,0,0,4.18,-139.29,37.53,-30.71,22.67,120.14,-584.49,-0.48,-0.04,0.82,13.84,4.18,0,0,4.19,0,1,1,10,27.933167,-80.7097543,49,2025,4,12,19,30,40,30,49,226,53,1.6,0.8,1.3,0,0,0,0,23,0,0,0,0,0,17,18,0,30,0,0,19,0,0,18,0,22,0,22,19,0,0,0,0,0,0,0
6,11065,1,Zephyr2,2.49,4,    fast,-146.12,99032,192.65,212.44,320.96,38.2,0,0,4.18,-213.76,-160.66,-43.78,-76.45,67.4,-223.29,-0.48,-0.05,0.83,13.09,4.18,0,0,4.19,0,1,1,10,27.933167,-80.7097543,49,2025,4,12,19,30,40,30,49,226,53,1.6,0.8,1.3,0,0,0,0,23,0,0,0,0,0,17,18,0,30,0,0,19,0,0,18,0,22,0,22,19,0,0,0,0,0,0,0
6,11065,1,Zephyr2,2.5,4,    fast,-178.48,99032,192.65,212.44,318.56,38.2,0,0,4.18,-120.48,-235.42,52.86,-169.77,25.04,31.96,-0.48,-0.05,0.83,12.83,4.18,0,0,4.19,0,1,1,10,27.933167,-80.7097543,49,2025,4,12,19,30,40,30,49,226,53,1.6,0.8,1.3,0,0,0,0,23,0,0,0,0,0,17,18,0,30,0,0,19,0,0,18,0,22,0,22,19,0,0,0,0,0,0,0
6,11065,1,Zephyr2,2.51,4,    fast,-437.87,99107,186.29,206.08,315.98,38.2,0,0,4.18,-209.42,81.83,16.82,84.32,87.24,-92.92,-0.47,-0.06,0.84,11.98,4.18,0,0,4.19,0,1,1,10,27.933167,-80.7097543,49,2025,4,12,19,30,40,30,49,226,53,1.6,0.8,1.3,0,0,0,0,23,0,0,0,0,0,17,18,0,30,0,0,19,0,0,18,0,22,0,22,19,0,0,0,0,0,0,0
6,11065,1,Zephyr2,2.52,4,    fast,-384.42,99107,186.29,206.08,313.15,38.2,0,0,4.18,-235.41,72.04,48.29,16.69,75.15,177.83,-0.47,-0.05,0.82,11.23,4.18,0,0,4.19,0,1,1,10,27.933167,-80.7097543,49,2025,4,12,19,30,40,30,49,226,53,1.6,0.8,1.3,0,0,0,0,23,0,0,0,0,0,17,18,0,30,0,0,19,0,0,18,0,22,0,22,19,0,0,0,0,0,0,0
6,11065,1,Zephyr2,2.53,4,    fast,-163.28,98695,221.26,241.06,310.08,38.2,0,0,4.18,-235.12,-235.42,123.39,-71.38,124.35,-85.78,-0.48,-0.06,0.84,9.96,4.18,0,0,4.19,0,1,1,10,27.933167,-80.7097543,49,2025,4,12,19,30,40,30,49,226,53,1.6,0.8,1.3,0,0,0,0,23,0,0,0,0,0,17,18,0,30,0,0,19,0,0,18,0,22,0,22,19,0,0,0,0,0,0,0
6,11065,1,Zephyr2,2.54,4,    fast,-257.42,98695,221.26,241.06,306.85,38.2,0,0,4.18,-202.2,60.5,-0.85,-170.75,74.36,-293.72,-0.48,-0.06,0.84,9.63,4.18,0,0,4.19,0,1,1,10,27.933167,-80.7097543,49,2025,4,12,19,30,40,30,49,226,53,1.6,0.8,1.3,0,0,0,0,23,0,0,0,0,0,17,18,0,30,0,0,19,0,0,18,0,22,0,22,19,0,0,0,0,0,0,0
6,11065,1,Zephyr2,2.55,4,    fast,-522.2,98163,266.6,286.39,303.58,38.2,0,0,4.18,-184.02,97.73,106.28,-32.99,97.49,-47.32,-0.48,-0.05,0.83,8.84,4.18,0,0,4.19,0,1,1,10,27.933167,-80.7097543,49,2025,4,12,19,30,40,30,49,226,53,1.6,0.8,1.3,0,0,0,0,23,0,0,0,0,0,17,18,0,30,0,0,19,0,0,18,0,22,0,22,19,0,0,0,0,0,0,0
6,11065,1,Zephyr2,2.56,4,    fast,-446.69,98163,266.6,286.39,300.39,38.2,0,0,4.18,-235.41,-235.42,64.46,-63.81,9.3,-55.81,-0.48,-0.06,0.86,8.96,4.18,0,0,4.19,0,1,1,10,27.933167,-80.7097543,49,2025,4,12,19,30,40,30,49,226,53,1.6,0.8,1.3,0,0,0,0,23,0,0,0,0,0,17,18,0,30,0,0,19,0,0,18,0,22,0,22,19,0,0,0,0,0,0,0
6,11065,1,Zephyr2,2.57,4,    fast,-210.35,98406,245.87,265.66,297.37,38.2,0,0,4.18,-235.41,227.76,103.15,-184.24,18.76,-95.48,-0.47,-0.06,0.85,9.19,4.18,0,0,4.19,0,1,1,10,27.933167,-80.7097543,49,2025,4,12,19,30,40,30,49,226,53,1.6,0.8,1.3,0,0,0,0,23,0,0,0,0,0,17,18,0,30,0,0,19,0,0,18,0,22,0,22,19,0,0,0,0,0,0,0
6,11065,1,Zephyr2,2.58,4,    fast,-126.02,98406,245.87,265.66,294.56,38.2,0,0,4.17,-116.96,-57.14,104.78,-328.4,68.44,314.98,-0.49,-0.11,0.86,7.61,4.19,0,0,1.08,0,1,1,10,27.933167,-80.7097543,49,2025,4,12,19,30,40,30,49,226,53,1.6,0.8,1.3,0,0,0,0,23,0,0,0,0,0,17,18,0,30,0,0,19,0,0,18,0,22,0,22,19,0,0,0,0,0,0,0
6,11065,1,Zephyr2,2.58,4,    fast,-126.02,98406,245.87,265.66,294.56,38.2,0,0,4.17,-116.96,-57.14,104.78,-328.4,68.44,314.98,-0.49,-0.11,0.86,7.61,4.19,0,0,1.08,0,1,1,10,27.933167,-80.7097543,49,2025,4,12,19,30,40,30,49,226,53,1.6,0.8,1.3,0,0,0,0,23,0,0,0,0,0,17,18,0,30,0,0,19,0,0,18,0,22,0,22,19,0,0,0,0,0,0,0
6,11065,1,Zephyr2,2.59,4,    fast,-159.85,96849,379.44,399.23,291.91,38.2,0,0,4.17,-100.65,178.83,-164.28,-710.73,-245.4,291.24,-0.51,-0.19,0.89,10.32,4.19,0,0,1.08,0,1,1,10,27.933167,-80.7097543,49,2025,4,12,19,30,40,30,49,226,53,1.6,0.8,1.3,0,0,0,0,23,0,0,0,0,0,17,18,0,30,0,0,19,0,0,18,0,22,0,22,19,0,0,0,0,0,0,0
6,11065,1,Zephyr2,2.6,4,    fast,-565.35,96849,379.44,399.23,289.35,38.2,0,0,4.17,-155.1,-235.42,-65.75,-1682.89,-427.96,766.82,-0.56,-0.4,0.95,17.9,4.19,0,0,1.08,0,1,1,10,27.933167,-80.7097543,49,2025,4,12,19,30,40,30,49,226,53,1.6,0.8,1.3,0,0,0,0,23,0,0,0,0,0,17,18,0,30,0,0,19,0,0,18,0,22,0,22,19,0,0,0,0,0,0,0
6,11065,1,Zephyr2,2.61,4,    fast,-206.43,93775,648.34,668.13,286.82,38.2,0,0,4.17,-154.5,-185.26,-235.26,-1772.49,-479.35,995.4,-0.68,-0.53,0.93,28.85,4.19,0,0,1.08,0,1,1,10,27.933167,-80.7097543,49,2025,4,12,19,30,40,30,49,226,53,1.6,0.8,1.3,0,0,0,0,23,0,0,0,0,0,17,18,0,30,0,0,19,0,0,18,0,22,0,22,19,0,0,0,0,0,0,0
6,11065,1,Zephyr2,2.62,4,    fast,-163.28,93775,648.34,668.13,284.37,38.2,0,0,4.17,-232.33,-48.2,81.78,-1223.85,-346.84,585.3,-0.72,-0.58,0.95,35.42,4.19,0,0,1.08,0,1,1,10,27.933167,-80.7097543,49,2025,4,12,19,30,40,30,49,226,53,1.6,0.8,1.3,0,0,0,0,23,0,0,0,0,0,17,18,0,30,0,0,19,0,0,18,0,22,0,22,19,0,0,0,0,0,0,0
6,11065,1,Zephyr2,2.63,4,    fast,-419.72,93559,667.5,687.29,282.09,38.2,0,0,4.17,-173.6,-235.42,-41.97,-1367.04,-533.18,721.23,-0.84,-0.56,0.97,43.28,4.19,0,0,1.08,0,1,1,10,27.933167,-80.7097543,49,2025,4,12,19,30,40,30,49,226,53,1.6,0.8,1.3,0,0,0,0,23,0,0,0,0,0,17,18,0,30,0,0,19,0,0,18,0,22,0,22,19,0,0,0,0,0,0,0
6,11065,1,Zephyr2,2.64,4,    fast,-372.16,93559,667.5,687.29,280.12,38.2,0,0,4.17,-213.73,-227.83,-93.39,1438.63,-754.31,918.98,-0.92,-0.42,1.11,52.55,4.19,0,0,1.08,0,1,1,10,27.933167,-80.7097543,49,2025,4,12,19,30,40,30,49,226,53,1.6,0.8,1.3,0,0,0,0,23,0,0,0,0,0,17,18,0,30,0,0,19,0,0,18,0,22,0,22,19,0,0,0,0,0,0,0
6,11065,1,Zephyr2,2.65,4,    fast,-330.48,86133,1349.15,1368.94,278.57,38.2,0,0,4.17,-234.88,-235.42,-162.19,1662.38,-1293.44,819.19,-0.92,-0.42,1.11,64.94,4.19,0,0,1.08,0,1,1,10,27.933167,-80.7097543,49,2025,4,12,19,30,40,30,49,226,53,1.6,0.8,1.3,0,0,0,0,23,0,0,0,0,0,17,18,0,30,0,0,19,0,0,18,0,22,0,22,19,0,0,0,0,0,0,0
6,11065,1,Zephyr2,2.66,4,    fast,-336.37,86133,1349.15,1368.94,277.53,38.2,0,0,4.17,-235.41,-235.4,-235.26,1320.16,-1553.45,313.27,-1.13,-0.25,1,77.9,4.19,0,0,1.08,0,1,1,10,27.933167,-80.7097543,49,2025,4,12,19,30,40,30,49,226,53,1.6,0.8,1.3,0,0,0,0,23,0,0,0,0,0,17,18,0,30,0,0,19,0,0,18,0,22,0,22,19,0,0,0,0,0,0,0
6,11065,1,Zephyr2,2.67,4,    fast,-275.57,66866,3370.71,3390.5,277,38.2,0,0,4.17,-235.4,-206.41,-234.55,-230.2,-1640.3,451.64,-1.23,-0.27,0.85,94.25,4.19,0,0,1.08,0,1,1,10,27.933167,-80.7097543,49,2025,4,12,19,30,40,30,49,226,53,1.6,0.8,1.3,0,0,0,0,23,0,0,0,0,0,17,18,0,30,0,0,19,0,0,18,0,22,0,22,19,0,0,0,0,0,0,0
6,11065,1,Zephyr2,2.68,4,    fast,-244.68,66866,3370.71,3390.5,276.93,38.2,0,0,4.17,-229.8,-210.8,-235.25,-1551.06,-1622.6,785.87,-1.28,-0.24,0.72,112.1,4.19,0,0,1.08,0,1,1,10,27.933167,-80.7097543,49,2025,4,12,19,30,40,30,49,226,53,1.6,0.8,1.3,0,0,0,0,23,0,0,0,0,0,17,18,0,30,0,0,19,0,0,18,0,22,0,22,19,0,0,0,0,0,0,0
6,11065,1,Zephyr2,2.69,4,    fast,-146.61,75026,2463.46,2483.26,277.12,38.2,0,0,4.17,-219.88,-235.42,-142.58,-1991.24,-1025.25,1340,-1.28,-0.19,0.7,128.83,4.19,0,0,1.08,0,1,1,10,27.933167,-80.7097543,49,2025,4,12,19,30,40,30,49,226,53,1.6,0.8,1.3,0,0,0,0,23,0,0,0,0,0,17,18,0,30,0,0,19,0,0,18,0,22,0,22,19,0,0,0,0,0,0,0
6,11065,1,Zephyr2,2.7,4,    fast,-43.64,75026,2463.46,2483.26,277.39,38.2,0,0,4.17,-140.76,-234.43,-87.25,-1994.36,-296.24,1372.23,-1.26,-0.13,0.72,142.45,4.19,0,0,1.08,0,1,1,10,27.933167,-80.7097543,49,2025,4,12,19,30,40,30,49,226,53,1.6,0.8,1.3,0,0,0,0,23,0,0,0,0,0,17,18,0,30,0,0,19,0,0,18,0,22,0,22,19,0,0,0,0,0,0,0
6,11065,1,Zephyr2,2.71,4,    fast,-35.79,91973,809.3,829.1,277.6,38.2,0,0,4.17,-61.11,-173.9,32.91,-1789.46,6,1090.25,-1.24,-0.13,0.77,153.19,4.19,0,0,1.08,0,1,1,10,27.933167,-80.7097543,49,2025,4,12,19,30,40,30,49,226,53,1.6,0.8,1.3,0,0,0,0,23,0,0,0,0,0,17,18,0,30,0,0,19,0,0,18,0,22,0,22,19,0,0,0,0,0,0,0
6,11065,1,Zephyr2,2.72,4,    fast,-9.81,91973,809.3,829.1,277.69,38.2,0,0,4.17,-16.54,-75,29.8,-1746.61,253.87,807.41,-1.21,-0.14,0.84,161.43,4.19,0,0,1.08,0,1,1,10,27.933167,-80.7097543,49,2025,4,12,19,30,40,30,49,226,53,1.6,0.8,1.3,0,0,0,0,23,0,0,0,0,0,17,18,0,30,0,0,19,0,0,18,0,22,0,22,19,0,0,0,0,0,0,0
6,11065,1,Zephyr2,2.73,4,    fast,-3.43,93692,655.7,675.49,277.69,38.2,0,0,4.17,0.73,-23.9,35.35,-1648.04,287.25,572.12,-1.2,-0.17,0.87,167.76,4.19,0,0,1.08,0,1,1,10,27.933167,-80.7097543,49,2025,4,12,19,30,40,30,49,226,53,1.6,0.8,1.3,0,0,0,0,23,0,0,0,0,0,17,18,0,30,0,0,19,0,0,18,0,22,0,22,19,0,0,0,0,0,0,0
6,11065,1,Zephyr2,2.74,4,    fast,-1.96,93692,655.7,675.49,277.67,38.2,0,0,4.17,4.06,-23.01,1.37,-1527.86,217.18,419.96,-1.18,-0.22,0.91,172.46,4.19,0,0,1.08,0,1,1,10,27.933167,-80.7097543,49,2025,4,12,19,30,40,30,49,226,53,1.6,0.8,1.3,0,0,0,0,23,0,0,0,0,0,17,18,0,30,0,0,19,0,0,18,0,22,0,22,19,0,0,0,0,0,0,0
6,11065,1,Zephyr2,2.75,4,    fast,-7.35,93565,666.97,686.76,277.73,38.2,0,0,4.17,9.07,-10.58,22.04,-1392.06,166.28,423.32,-1.17,-0.26,0.92,175.75,4.19,0,0,1.08,0,1,1,10,27.933167,-80.7097543,49,2025,4,12,19,30,40,30,49,226,53,1.6,0.8,1.3,0,0,0,0,23,0,0,0,0,0,17,18,0,30,0,0,19,0,0,18,0,22,0,22,19,0,0,0,0,0,0,0
6,11065,1,Zephyr2,2.76,4,    fast,-30.4,93565,666.97,686.76,277.99,38.2,0,0,4.17,5.51,0.7,-0.71,-1252.41,200.89,540.99,-1.17,-0.26,0.92,173.65,4.19,0,0,1.08,0,1,1,10,27.933167,-80.7097543,49,2025,4,12,19,30,40,30,49,226,53,1.6,0.8,1.3,0,0,0,0,23,0,0,0,0,0,17,18,0,30,0,0,19,0,0,18,0,22,0,22,19,0,0,0,0,0,0,0
6,11065,1,Zephyr2,2.77,4,    fast,-82.87,93440,678.07,697.86,278.53,38.2,0,0,4.17,-11.96,35.96,0.53,-1184.72,339.13,736.61,-1.13,-0.3,0.97,166.11,4.19,0,0,1.08,0,1,1,10,27.933167,-80.7097543,49,2025,4,12,19,30,40,30,49,226,53,1.6,0.8,1.3,0,0,0,0,23,0,0,0,0,0,17,18,0,30,0,0,19,0,0,18,0,22,0,22,19,0,0,0,0,0,0,0
6,11065,1,Zephyr2,2.78,4,    fast,-162.79,93440,678.07,697.86,279.34,38.2,0,0,4.17,-56.99,84.87,-27.18,-1126.19,604.09,879.68,-1.1,-0.32,1,155.59,4.19,0,0,1.08,0,1,1,10,27.933167,-80.7097543,49,2025,4,12,19,30,40,30,49,226,53,1.6,0.8,1.3,0,0,0,0,23,0,0,0,0,0,17,18,0,30,0,0,19,0,0,18,0,22,0,22,19,0,0,0,0,0,0,0
6,11065,1,Zephyr2,2.79,4,    fast,-245.17,90340,957.39,977.19,280.34,38.2,0,0,4.17,-139.17,136.24,-138.92,-904.02,938.8,972.15,-1.01,-0.33,1.05,142.13,4.19,0,0,1.08,0,1,1,10,27.933167,-80.7097543,49,2025,4,12,19,30,40,30,49,226,53,1.6,0.8,1.3,0,0,0,0,23,0,0,0,0,0,17,18,0,30,0,0,19,0,0,18,0,22,0,22,19,0,0,0,0,0,0,0
6,11065,1,Zephyr2,2.8,4,    fast,-279.49,90340,957.39,977.19,281.34,38.2,0,0,4.17,-219.63,232.62,-220.91,-528.78,1214.38,997.72,-0.94,-0.33,1.09,126.46,4.19,0,0,1.08,0,1,1,10,27.933167,-80.7097543,49,2025,4,12,19,30,40,30,49,226,53,1.6,0.8,1.3,0,0,0,0,23,0,0,0,0,0,17,18,0,30,0,0,19,0,0,18,0,22,0,22,19,0,0,0,0,0,0,0
6,11065,1,Zephyr2,2.81,4,    fast,-239.28,81604,1788.61,1808.4,282.16,38.2,0,0,4.17,-235.2,-235.42,-235.26,-105.07,1409.69,908.3,-0.83,-0.27,1.12,109.74,4.19,0,0,1.08,0,1,1,10,27.933167,-80.7097543,49,2025,4,12,19,30,40,30,49,226,53,1.6,0.8,1.3,0,0,0,0,23,0,0,0,0,0,17,18,0,30,0,0,19,0,0,18,0,22,0,22,19,0,0,0,0,0,0,0
6,11065,1,Zephyr2,2.82,4,    fast,-167.69,81604,1788.61,1808.4,282.69,38.2,0,0,4.17,-217.89,235.37,-134.47,750.88,1285.79,778.24,-0.73,-0.17,1.09,94.75,4.19,0,0,1.08,0,1,1,10,27.933167,-80.7097543,49,2025,4,12,19,30,40,30,49,226,53,1.6,0.8,1.3,0,0,0,0,23,0,0,0,0,0,17,18,0,30,0,0,19,0,0,18,0,22,0,22,19,0,0,0,0,0,0,0
6,11065,1,Zephyr2,2.83,4,    fast,-124.05,81622,1786.82,1806.62,282.91,38.2,0,0,4.17,-160.1,-235.42,-108.85,417.45,901.75,597.51,-0.69,-0.13,1.03,83.97,4.19,0,0,1.08,0,1,1,10,27.933167,-80.7097543,49,2025,4,12,19,30,40,30,49,226,53,1.6,0.8,1.3,0,0,0,0,23,0,0,0,0,0,17,18,0,30,0,0,19,0,0,18,0,22,0,22,19,0,0,0,0,0,0,0
6,11065,1,Zephyr2,2.84,4,    fast,-48.54,81622,1786.82,1806.62,282.85,38.2,0,0,4.17,-90.54,-235.42,4.03,177.76,648.46,304.73,-0.64,-0.16,1.02,77.1,4.19,0,0,1.08,0,1,1,10,27.933167,-80.7097543,49,2025,4,12,19,30,40,30,49,226,53,1.6,0.8,1.3,0,0,0,0,23,0,0,0,0,0,17,18,0,30,0,0,19,0,0,18,0,22,0,22,19,0,0,0,0,0,0,0
6,11065,1,Zephyr2,2.85,4,    fast,-129.45,87879,1184.72,1204.52,282.62,38.2,0,0,4.17,-76.81,-235.42,-74.63,-471.28,629.9,76.82,-0.61,-0.22,1.02,72.03,4.19,0,0,1.08,0,1,1,10,27.933167,-80.7097543,49,2025,4,12,19,30,40,30,49,226,53,1.6,0.8,1.3,0,0,0,0,23,0,0,0,0,0,17,18,0,30,0,0,19,0,0,18,0,22,0,22,19,0,0,0,0,0,0,0
6,11065,1,Zephyr2,2.86,4,    fast,-46.58,87879,1184.72,1204.52,282.28,38.2,0,0,4.17,-91.37,-235.42,-44.41,-1180.27,349.45,-248.13,-0.57,-0.31,0.99,70.98,4.19,0,0,1.08,0,1,1,10,27.933167,-80.7097543,49,2025,4,12,19,30,40,30,49,226,53,1.6,0.8,1.3,0,0,0,0,23,0,0,0,0,0,17,18,0,30,0,0,19,0,0,18,0,22,0,22,19,0,0,0,0,0,0,0
6,11065,1,Zephyr2,2.87,4,    fast,-161.32,84256,1528.95,1548.75,281.87,38.2,0,0,4.17,-98.37,228.46,-63.05,-1603.98,447.65,-555.01,-0.57,-0.31,0.99,69.98,4.19,0,0,1.08,0,1,1,10,27.933167,-80.7097543,49,2025,4,12,19,30,40,30,49,226,53,1.6,0.8,1.3,0,0,0,0,23,0,0,0,0,0,17,18,0,30,0,0,19,0,0,18,0,22,0,22,19,0,0,0,0,0,0,0
6,11065,1,Zephyr2,2.88,4,    fast,-109.83,84256,1528.95,1548.75,281.4,38.2,0,0,4.17,-126.04,195.28,-185.77,-1032.75,286.7,-851.65,-0.52,-0.3,0.94,69.86,4.19,0,0,1.08,0,1,1,10,27.933167,-80.7097543,49,2025,4,12,19,30,40,30,49,226,53,1.6,0.8,1.3,0,0,0,0,23,0,0,0,0,0,17,18,0,30,0,0,19,0,0,18,0,22,0,22,19,0,0,0,0,0,0,0
6,11065,1,Zephyr2,2.89,4,    fast,-139.25,80206,1928.25,1948.04,280.9,38.2,0,0,4.17,-119.5,187.51,-198.22,-218.54,207.3,-989.52,-0.5,-0.2,0.92,69.76,4.19,0,0,1.08,0,1,1,10,27.933167,-80.7097543,49,2025,4,12,19,30,40,30,49,226,53,1.6,0.8,1.3,0,0,0,0,23,0,0,0,0,0,17,18,0,30,0,0,19,0,0,18,0,22,0,22,19,0,0,0,0,0,0,0
6,11065,1,Zephyr2,2.9,4,    fast,-130.43,80206,1928.25,1948.04,280.37,38.2,0.01,0,4.18,-131.84,213,-179.99,525.85,242.76,-1067.22,-0.5,-0.12,0.88,69.83,4.19,0,0,0.52,0,1,1,10,27.933167,-80.7097543,49,2025,4,12,19,30,40,30,49,226,53,1.6,0.8,1.3,0,0,0,0,23,0,0,0,0,0,17,18,0,30,0,0,19,0,0,18,0,22,0,22,19,0,0,0,0,0,0,0
6,11065,1,Zephyr2,2.9,4,    fast,-130.43,80206,1928.25,1948.04,280.37,38.2,0.01,0,4.18,-131.84,213,-179.99,525.85,242.76,-1067.22,-0.5,-0.12,0.88,69.83,4.19,0,0,0.52,0,1,1,10,27.933167,-80.7097543,49,2025,4,12,19,30,40,30,49,226,53,1.6,0.8,1.3,0,0,0,0,23,0,0,0,0,0,17,18,0,30,0,0,19,0,0,18,0,22,0,22,19,0,0,0,0,0,0,0
6,11065,1,Zephyr2,2.91,4,    fast,-165.24,82739,1676.66,1696.45,279.83,38.2,0.01,0,4.18,-144.15,225.6,-186.26,1215.42,428.73,-1097.56,-0.52,0,0.78,70.16,4.19,0,0,0.52,0,1,1,10,27.933167,-80.7097543,49,2025,4,12,19,30,40,30,49,226,53,1.6,0.8,1.3,0,0,0,0,23,0,0,0,0,0,17,18,0,30,0,0,19,0,0,18,0,22,0,22,19,0,0,0,0,0,0,0
6,11065,1,Zephyr2,2.92,4,    fast,-162.79,82739,1676.66,1696.45,279.3,38.2,0.01,0,4.18,-155.5,-235.42,-111.26,1074.49,688.8,-1025.17,-0.54,0.04,0.73,71.45,4.19,0,0,0.52,0,1,1,10,27.933167,-80.7097543,49,2025,4,12,19,30,40,30,49,226,53,1.6,0.8,1.3,0,0,0,0,23,0,0,0,0,0,17,18,0,30,0,0,19,0,0,18,0,22,0,22,19,0,0,0,0,0,0,0
6,11065,1,Zephyr2,2.93,4,    fast,-164.75,89286,1054.13,1073.93,278.81,38.2,0.01,0,4.18,-160.99,235.37,-83.09,150.36,807.27,-928.37,-0.58,0.07,0.73,74.47,4.19,0,0,0.52,0,1,1,10,27.933167,-80.7097543,49,2025,4,12,19,30,40,30,49,226,53,1.6,0.8,1.3,0,0,0,0,23,0,0,0,0,0,17,18,0,30,0,0,19,0,0,18,0,22,0,22,19,0,0,0,0,0,0,0
6,11065,1,Zephyr2,2.94,4,    fast,-180.44,89286,1054.13,1073.93,278.39,38.2,0.01,0,4.18,-165.25,-235.42,-65.17,-957.8,765.4,-904.69,-0.61,0.06,0.8,78.59,4.19,0,0,0.52,0,1,1,10,27.933167,-80.7097543,49,2025,4,12,19,30,40,30,49,226,53,1.6,0.8,1.3,0,0,0,0,23,0,0,0,0,0,17,18,0,30,0,0,19,0,0,18,0,22,0,22,19,0,0,0,0,0,0,0
6,11065,1,Zephyr2,2.95,4,    fast,-164.75,87613,1209.6,1229.39,278.06,38.2,0.01,0,4.18,-175.23,171.52,-112.79,-1961.4,560.63,-1000.82,-0.66,0,0.93,83.34,4.19,0,0,0.52,0,1,1,10,27.933167,-80.7097543,49,2025,4,12,19,30,40,30,49,226,53,1.6,0.8,1.3,0,0,0,0,23,0,0,0,0,0,17,18,0,30,0,0,19,0,0,18,0,22,0,22,19,0,0,0,0,0,0,0
6,11065,1,Zephyr2,2.96,4,    fast,-160.83,87613,1209.6,1229.39,277.83,38.2,0.01,0,4.18,-170.2,49.22,-161.8,-1958.04,178.3,-1139.73,-0.71,-0.07,1.01,88.53,4.19,0,0,0.52,0,1,1,10,27.933167,-80.7097543,49,2025,4,12,19,30,40,30,49,226,53,1.6,0.8,1.3,0,0,0,0,23,0,0,0,0,0,17,18,0,30,0,0,19,0,0,18,0,22,0,22,19,0,0,0,0,0,0,0
6,11065,1,Zephyr2,2.97,4,    fast,-152.49,85379,1420.99,1440.79,277.69,38.2,0.01,0,4.18,-165.24,-8.18,-168.52,-1498.81,-54.36,-1183.92,-0.75,-0.13,1.04,92.4,4.19,0,0,0.52,0,1,1,10,27.933167,-80.7097543,49,2025,4,12,19,30,40,30,49,226,53,1.6,0.8,1.3,0,0,0,0,23,0,0,0,0,0,17,18,0,30,0,0,19,0,0,18,0,22,0,22,19,0,0,0,0,0,0,0
6,11065,1,Zephyr2,2.98,4,    fast,-139.25,85379,1420.99,1440.79,277.64,38.2,0.01,0,4.18,-151.4,-84.32,-136.01,-1455.29,-255.47,-1121.85,-0.75,-0.13,1.04,95.11,4.19,0,0,0.52,0,1,1,10,27.933167,-80.7097543,49,2025,4,12,19,30,40,30,49,226,53,1.6,0.8,1.3,0,0,0,0,23,0,0,0,0,0,17,18,0,30,0,0,19,0,0,18,0,22,0,22,19,0,0,0,0,0,0,0
6,11065,1,Zephyr2,2.99,4,    fast,-121.6,87498,1220.38,1240.17,277.65,38.2,0.01,0,4.18,-135.91,-123.83,-91.08,-1925.94,-479.23,-977.99,-0.84,-0.41,1.04,97.2,4.19,0,0,0.52,0,1,1,10,27.933167,-80.7097543,49,2025,4,12,19,30,40,30,49,226,53,1.6,0.8,1.3,0,0,0,0,23,0,0,0,0,0,17,18,0,30,0,0,19,0,0,18,0,22,0,22,19,0,0,0,0,0,0,0
6,11065,1,Zephyr2,3,4,    fast,-133.86,87498,1220.38,1240.17,277.7,38.2,0.01,0,4.18,-123.2,-199.31,-32.61,-2000.28,-780.99,-702.23,-0.89,-0.55,0.92,99.39,4.19,0,0,0.52,0,1,1,10,27.933167,-80.7097543,49,2025,4,12,19,30,40,30,49,226,53,1.6,0.8,1.3,0,0,0,0,23,0,0,0,0,0,17,18,0,30,0,0,19,0,0,18,0,22,0,22,19,0,0,0,0,0,0,0
6,11065,1,Zephyr2,3.01,4,    fast,-114.25,93980,630.18,649.98,277.77,38.2,0.01,0,4.18,-124.62,-235.42,10.63,-1989.41,-1018.72,-394.13,-0.92,-0.6,0.8,101.42,4.19,0,0,0.52,0,1,1,10,27.933167,-80.7097543,49,2025,4,12,19,30,40,30,49,226,53,1.6,0.8,1.3,0,0,0,0,23,0,0,0,0,0,17,18,0,30,0,0,19,0,0,18,0,22,0,22,19,0,0,0,0,0,0,0
6,11065,1,Zephyr2,3.02,4,    fast,-95.61,93980,630.18,649.98,277.85,38.2,0.01,0,4.18,-106.92,-164.78,106.52,-1910.49,-1083.11,-91.33,-0.96,-0.62,0.58,102.32,4.19,0,0,0.52,0,1,1,10,27.933167,-80.7097543,49,2025,4,12,19,30,40,30,49,226,53,1.6,0.8,1.3,0,0,0,0,23,0,0,0,0,0,17,18,0,30,0,0,19,0,0,18,0,22,0,22,19,0,0,0,0,0,0,0
6,11065,1,Zephyr2,3.03,4,    fast,-86.3,92912,725.11,744.9,277.94,38.2,0.01,0,4.18,-89.64,-124.77,165.96,-2000.28,-1025.8,244.48,-0.99,-0.52,0.32,102.61,4.19,0,0,0.52,0,1,1,10,27.933167,-80.7097543,49,2025,4,12,19,30,40,30,49,226,53,1.6,0.8,1.3,0,0,0,0,23,0,0,0,0,0,17,18,0,30,0,0,19,0,0,18,0,22,0,22,19,0,0,0,0,0,0,0
6,11065,1,Zephyr2,3.04,4,    fast,-90.71,92912,725.11,744.9,278.04,38.2,0.01,0,4.18,-79.44,-83.69,209.9,-2000.28,-774.82,608.13,-1,-0.39,0.21,103.35,4.19,0,0,0.52,0,1,1,10,27.933167,-80.7097543,49,2025,4,12,19,30,40,30,49,226,53,1.6,0.8,1.3,0,0,0,0,23,0,0,0,0,0,17,18,0,30,0,0,19,0,0,18,0,22,0,22,19,0,0,0,0,0,0,0
6,11065,1,Zephyr2,3.05,4,    fast,-81.4,88759,1102.85,1122.64,278.16,38.2,0.01,0,4.18,-79.2,-6.73,198.71,-2000.28,-421.55,956.46,-1.01,-0.17,0.16,105.24,4.19,0,0,0.52,0,1,1,10,27.933167,-80.7097543,49,2025,4,12,19,30,40,30,49,226,53,1.6,0.8,1.3,0,0,0,0,23,0,0,0,0,0,17,18,0,30,0,0,19,0,0,18,0,22,0,22,19,0,0,0,0,0,0,0
6,11065,1,Zephyr2,3.06,4,    fast,-87.28,88759,1102.85,1122.64,278.31,38.2,0.01,0,4.18,-71.79,93.38,158.58,-2000.28,-47.16,988.26,-1.01,-0.01,0.22,106.77,4.19,0,0,0.52,0,1,1,10,27.933167,-80.7097543,49,2025,4,12,19,30,40,30,49,226,53,1.6,0.8,1.3,0,0,0,0,23,0,0,0,0,0,17,18,0,30,0,0,19,0,0,18,0,22,0,22,19,0,0,0,0,0,0,0
6,11065,1,Zephyr2,3.07,4,    fast,-111.8,90193,970.83,990.62,278.53,38.2,0.01,0,4.18,-80.31,115.4,132.9,-2000.28,379.78,872.66,-1,0.15,0.45,108.77,4.19,0,0,0.52,0,1,1,10,27.933167,-80.7097543,49,2025,4,12,19,30,40,30,49,226,53,1.6,0.8,1.3,0,0,0,0,23,0,0,0,0,0,17,18,0,30,0,0,19,0,0,18,0,22,0,22,19,0,0,0,0,0,0,0
6,11065,1,Zephyr2,3.08,4,    fast,-119.15,90193,970.83,990.62,278.83,38.2,0.01,0,4.18,-90.04,143.61,35.55,-2000.28,780.48,533.36,-0.99,0.14,0.72,112.13,4.19,0,0,0.52,0,1,1,10,27.933167,-80.7097543,49,2025,4,12,19,30,40,30,49,226,53,1.6,0.8,1.3,0,0,0,0,23,0,0,0,0,0,17,18,0,30,0,0,19,0,0,18,0,22,0,22,19,0,0,0,0,0,0,0
6,11065,1,Zephyr2,3.09,4,    fast,-130.92,94975,542.53,562.32,279.22,38.2,0.01,0,4.18,-108.71,133.34,37.92,-2000.28,899.07,131.2,-0.99,0.14,0.72,115.7,4.19,0,0,0.52,0,1,1,10,27.933167,-80.7097543,49,2025,4,12,19,30,40,30,49,226,53,1.6,0.8,1.3,0,0,0,0,23,0,0,0,0,0,17,18,0,30,0,0,19,0,0,18,0,22,0,22,19,0,0,0,0,0,0,0
6,11065,1,Zephyr2,3.1,4,    fast,-149.55,94975,542.53,562.32,279.69,38.2,0.01,0,4.18,-117.21,97.64,0.61,-2000.28,853.66,-300.25,-0.95,-0.19,1.05,119.79,4.19,0,0,0.52,0,1,1,10,27.933167,-80.7097543,49,2025,4,12,19,30,40,30,49,226,53,1.6,0.8,1.3,0,0,0,0,23,0,0,0,0,0,17,18,0,30,0,0,19,0,0,18,0,22,0,22,19,0,0,0,0,0,0,0
6,11065,1,Zephyr2,3.11,4,    fast,-143.67,89285,1054.23,1074.02,280.24,38.2,0.01,0,4.18,-139.66,64.45,-33.97,-2000.28,583.09,-722.25,-0.94,-0.35,1.05,125.02,4.19,0,0,0.52,0,1,1,10,27.933167,-80.7097543,49,2025,4,12,19,30,40,30,49,226,53,1.6,0.8,1.3,0,0,0,0,23,0,0,0,0,0,17,18,0,30,0,0,19,0,0,18,0,22,0,22,19,0,0,0,0,0,0,0
